timestamp_ms,accel_x,accel_y,accel_z,gyro_x,gyro_y,gyro_z
20,-0.0106,-0.0277,0.9386,-1.854,8.121,5.188
39,-0.1328,-0.0367,1.0943,3.265,-1.455,-1.222
60,-0.0568,-0.0277,1.008,9.929,-0.315,0.444
81,-0.0063,-0.0088,0.8318,-0.761,-3.564,-4.555
99,0.0182,-0.0026,1.0619,-10.16,-5.578,3.389
117,-0.0895,-0.0499,0.8418,-0.713,1.152,1.33
137,-0.0027,-0.074,1.0693,-1.204,-7.207,-3.886
156,-0.0561,0.0025,0.9525,2.01,-0.415,-6.217
176,0.0117,-0.1765,1.0087,-9.97,7.927,0.804
195,-0.001,-0.005,0.9975,1.622,3.756,6.533
216,0.0372,-0.0472,0.9852,-2.107,1.015,7.931
237,0.0533,0.039,1.021,4.014,-5.492,-6.468
258,0.0229,0.0524,1.0082,-2.592,-0.304,4.672
279,0.043,0.0536,1.187,4.34,-3.98,3.987
300,-0.0175,-0.0173,1.0224,-7.554,7.211,6.924
319,0.1412,-0.0568,1.0247,0.089,-2.37,2.378
339,-0.0609,-0.0407,0.929,-4.859,-3.93,-1.672
358,-0.0264,0.0144,1.0381,-2.441,-1.089,3.93
379,0.0451,-0.0823,0.8976,13.6,-3.909,-12.884
399,0.0376,0.0697,1.115,-4.748,1.178,-4.958
419,0.0244,-0.0165,0.8516,-1.863,9.106,-4.348
438,0.0338,0.025,0.9156,-5.719,0.036,-3.363
460,-0.1042,-0.0891,0.8371,-1.535,-4.614,-7.6
479,0.0795,-0.0463,1.042,-0.75,-0.79,-2.822
499,-0.0102,-0.0953,0.9576,-3.673,-6.354,-2.768
518,0.0623,0.0511,1.0686,7.882,14.367,-1.318
539,-0.1017,-0.008,0.9024,5.776,9.004,1.419
559,0.0128,0.0286,1.0531,-4.734,6.235,-6.256
580,-0.0282,0.0032,1.058,4.084,3.757,-2.264
601,0.0286,0.0234,1.0212,-2.4,-0.827,-0.458
624,0.0159,-0.0169,1.0031,-6.147,-0.717,-9.27
643,0.0183,-0.0102,1.0137,-3.589,-1.102,-0.368
663,-0.0529,-0.0046,0.9089,-6.28,11.884,1.194
681,-0.0028,0.0203,0.8925,4.706,-0.961,3.79
702,-0.009,0.0216,1.0544,-4.382,-2.82,-6.599
724,0.0248,0.1406,0.9631,6.441,-0.523,-0.758
744,0.0495,0.0841,1.0453,0.704,2.585,6.199
763,0.0075,-0.0889,1.1551,-2.018,-17.412,-8.68
781,-0.0638,-0.0072,0.9543,-2.51,1.967,-0.034
802,0.0054,-0.0203,0.94,8.763,-12.713,-7.613
823,0.1306,0.064,0.9676,0.052,7.36,-2.148
844,0.0823,-0.0158,1.0039,-2.522,-8.621,-4.025
863,-0.1487,0.0232,1.0614,4.267,-4.016,1.871
884,0.0032,-0.1169,0.9972,2.928,-9.585,-1.476
904,0.0466,-0.0757,1.2079,-4.94,9.004,-6.383
924,-0.0091,0.1046,1.0421,0.026,-0.061,7.616
945,-0.023,0.0025,1.0781,-9.043,11.133,0.89
966,-0.0133,-0.0499,0.9963,-0.167,9.94,4.934
987,0.0276,0.0121,1.1012,1.571,6.246,-5.476
1007,-0.0574,-0.0527,0.9795,2.239,-7.009,-1.966
1027,0.0594,-0.0142,0.9356,-4.997,0.827,4.996
1048,-0.0028,-0.0726,1.0905,-3.693,6.831,-3.75
1066,-0.0468,-0.0394,0.9943,1.237,1.944,-0.025
1086,0.0562,-0.0208,1.0245,6.252,-1.849,-0.327
1105,-0.0773,0.056,1.0982,0.46,1.758,-11.815
1124,-0.0278,0.0232,1.0139,-2.791,2.239,-0.344
1143,-0.0286,0.0319,0.9851,4.851,-7.386,-2.094
1166,0.1072,-0.0013,0.9465,0.645,-2.834,-0.829
1184,-0.0343,0.0411,1.1062,0.894,3.266,-3.597
1206,-0.1077,-0.0437,0.9658,3.989,4.372,-6.445
1223,-0.0291,-0.0366,0.9949,-0.482,1.217,-4.068
1243,0.0228,0.0204,1.0287,-4.667,-2.039,-2.634
1263,0.0392,-0.014,1.0283,-0.773,-0.96,3.035
1284,0.1138,-0.0007,1.1014,5.561,-3.772,-2.799
1305,0.0703,-0.0082,0.993,9.463,-0.52,0.55
1326,0.0094,0.0627,1.1376,-6.094,4.25,1.006
1346,-0.0446,0.0653,0.9751,8.186,12.141,-2.704
1365,0.0812,-0.0313,1.0371,-1.835,-6.021,4.857
1386,-0.0184,-0.088,0.9816,0.102,6.334,-1.875
1406,-0.0329,-0.0356,1.2093,8.499,1.914,-2.805
1424,-0.0209,-0.0448,0.9649,-2.049,-8.006,5.524
1442,-0.0626,0.0416,0.974,-1.372,-0.488,0.685
1461,-0.0233,0.046,1.0115,-3.214,-0.91,-11.959
1482,-0.0117,-0.0516,0.9733,0.189,-0.008,-13.294
1502,0.0365,-0.0377,1.0314,1.559,5.239,7.967
1523,-0.0194,-0.074,1.1229,-3.435,9.874,0.415
1542,-0.0634,0.0067,1.0147,7.252,6.475,-0.869
1563,-0.0802,-0.0022,1.0184,-3.737,1.064,-11.093
1584,0.0105,0.0395,0.9771,2.492,1.62,-0.731
1603,0.0036,0.0249,0.9495,0.133,10.395,-5.273
1624,-0.0277,0.0305,1.0097,6.219,-5.294,-1.578
1643,-0.0234,-0.0771,1.0008,-4.02,6.21,-3.642
1662,0.0194,-0.0313,1.1173,2.863,-5.736,-1.448
1682,0.0695,0.0474,0.9041,12.105,-7.627,0.968
1700,-0.039,-0.0269,1.1455,-7.208,3.156,1.864
1721,0.0044,-0.0814,0.9853,-4.503,-8.288,-0.327
1740,0.0479,0.0404,1.0149,10.42,-1.964,0.533
1760,-0.0388,-0.0289,0.8935,-0.671,6.871,-8.922
1781,-0.0008,0.0531,1.0562,0.568,-4.569,-0.42
1801,-0.0019,-0.0009,0.904,-1.661,8.984,1.035
1822,-0.0656,-0.0139,1.0373,8.271,-11.288,-0.396
1842,0.0084,0.0682,1.0276,-8.068,5.221,7.429
1862,0.0016,-0.0651,0.9674,6.185,-6.921,-1.321
1881,0.0278,0.0717,0.7935,-7.388,-0.972,-6.622
1899,-0.0593,-0.032,1.2161,-7.835,1.079,-0.002
1917,0.0005,0.0081,0.8946,-5.435,-1.412,-2.871
1935,0.0691,0.0086,1.0273,-0.639,-1.286,-8.624
1953,0.1039,-0.0214,0.927,-3.572,-7.254,-1.523
1974,0.064,-0.0381,1.1048,-3.868,7.075,7.379
1992,-0.0589,-0.0185,0.9621,-4.638,-6.149,-1.845
2012,0.0226,-0.0507,0.9248,-4.551,-6.154,5.416
2034,-0.0242,0.0981,1.0595,-4.664,-0.486,3.588
2053,0.0142,-0.0241,0.8728,1.174,-3.484,11.834
2074,-0.0386,0.0579,0.9587,-3.18,4.193,2.269
2093,-0.0857,0.0514,1.069,-13.326,-2.668,0.382
2113,-0.0172,0.0181,1.1507,-0.186,-0.006,0.447
2131,0.0361,-0.0068,0.9038,3.747,0.572,1.392
2151,0.0144,0.0097,0.9388,-1.394,4.869,-1.3
2172,0.0201,0.0286,1.0352,-6.304,-2.638,-2.542
2189,0.0108,0.005,0.8003,3.725,-8.359,2.305
2210,0.0202,-0.0783,1.1358,-6.863,-4.048,-3.163
2230,0.0265,-0.0909,0.9001,-1.606,5.687,-9.335
2250,-0.0137,0.0754,0.9563,-0.109,1.74,-6.551
2267,0.0041,-0.1317,1.0261,5.396,-1.852,8.234
2287,0.0872,0.0098,1.0051,2.889,0.306,-1.595
2307,0.0071,-0.0117,0.9036,1.192,-1.328,3.842
2327,0.0021,0.008,1.1721,4.653,3.938,-3.489
2347,0.0051,-0.057,0.7425,-5.79,1.687,4.446
2369,-0.0109,0.0175,0.8878,7.9,-1.394,2.012
2389,-0.0218,0.0103,0.9363,-15.325,4.588,9.955
2408,0.0104,0.1381,0.905,7.139,5.884,6.583
2428,-0.0253,0.0065,1.122,-4.206,-4.597,3.678
2448,-0.0073,0.0674,0.8342,1.901,-4.505,-2.944
2470,-0.0395,-0.0749,1.1557,7.242,12.005,-5.879
2491,0.0054,0.051,0.9722,2.805,3.13,-0.701
2512,0.0292,0.0113,0.8639,1.862,8.347,0.095
2534,-0.0106,0.0135,0.7899,4.332,4.462,-2.045
2552,-0.1004,0.0142,0.9785,-7.4,2.297,3.526
2571,0.0295,0.0853,0.9298,-6.65,-10.683,0.388
2590,0.006,0.0128,1.0236,1.357,-6.106,-0.012
2609,-0.0497,-0.0392,0.9549,-0.988,3.252,7.621
2627,0.0387,-0.0308,1.0956,-1.564,-4.525,0.523
2648,-0.0699,0.0409,0.9858,6.191,-0.741,-6.776
2668,0.0523,0.0224,0.9576,5.757,4.552,5.12
2686,-0.0029,-0.0765,1.0973,-4.604,0.678,1.048
2704,-0.1134,0.0257,1.0228,2.212,1.994,-1.363
2725,0.0089,-0.0541,1.0775,-7.822,6.94,-4.78
2746,-0.0203,0.0219,1.1149,-7.942,7.435,6.306
2769,-0.0278,-0.0403,0.9706,-4.464,-0.282,8.451
2793,-0.0369,-0.0141,1.0038,-0.265,6.37,-3.362
2814,-0.0064,-0.0272,1.0844,-3.265,-4.804,1.488
2833,-0.0243,0.0759,0.7549,2.256,1.134,2.195
2849,-0.0928,0.0201,0.9898,-0.077,2.83,-8.718
2870,0.0636,0.0631,0.9775,5.57,-0.527,-0.218
2889,-0.0122,0.1448,1.0374,2.728,-1.11,-8.706
2908,-0.0366,0.0023,0.9199,-5.193,-5.597,-0.091
2927,-0.0564,0.0751,1.1095,4.503,-0.178,11.315
2947,0.0385,-0.035,0.9262,-4.31,-8.042,-7.246
2968,-0.0649,0.0627,0.9541,2.057,-0.666,9.381
2989,0.0067,-0.0404,0.9336,-2.461,0.302,8.882
3008,-0.0292,-0.0009,1.123,6.62,3.726,-0.028
3027,-0.0263,0.0268,0.7914,3.656,-5.881,2.576
3044,-0.0552,0.0347,1.1787,-3.463,1.699,-1.417
3064,-0.031,-0.0636,1.1473,-1.93,2.849,-2.236
3084,0.0004,-0.0434,0.9435,16.347,-0.11,1.017
3106,0.0118,0.0306,1.1027,-6.305,2.237,-3.874
3126,-0.0393,-0.0184,1.013,-3.6,1.349,2.366
3148,-0.0045,-0.0699,1.1653,-3.355,-13.003,0.208
3167,0.0444,-0.0035,1.0951,-5.795,-4.611,-5.337
3185,-0.0831,-0.0059,1.2193,-5.269,10.714,3.548
3204,-0.0003,0.0088,0.8438,-0.543,3.28,3.679
3223,-0.0475,0.0265,1.0191,2.383,-3.008,5.615
3246,-0.0526,0.0233,0.8276,-7.966,1.833,-2.398
3265,0.0131,-0.0384,0.9481,-2.507,3.555,5.145
3286,-0.0273,-0.0205,1.225,-4.02,7.706,10.833
3305,-0.0608,0.0464,1.0468,-5.852,-1.947,0.148
3326,0.0662,-0.0272,1.0985,4.979,-2.98,0.593
3347,0.046,-0.0198,1.0514,-3.825,-2.489,3.393
3366,-0.0966,-0.0752,1.045,-6.849,-2.857,-10.828
3386,-0.0737,-0.0014,0.9478,4.401,-3.025,-6.831
3405,0.0297,0.0173,0.9291,6.256,0.937,-2.754
3426,-0.0142,-0.0988,0.9451,1.188,-2.105,-1.705
3445,0.075,-0.0535,0.727,-4.704,-0.31,0.561
3463,0.0308,-0.0711,0.9918,-1.388,9.362,1.336
3482,0.015,0.0394,1.024,-3.275,-4.789,-6.865
3502,-0.0511,-0.0956,0.9381,-0.247,1.684,5.761
3524,0.0246,-0.0039,0.9869,3.58,-5.678,1.666
3544,-0.0638,0.0359,1.0525,-0.126,4.635,0.299
3564,0.0653,0.0094,1.0885,-0.018,5.595,2.453
3585,0.0211,-0.022,0.8802,-2.565,-4.338,-3.077
3607,-0.0412,0.0173,0.9205,3.324,-3.479,-1.193
3627,0.0402,0.0518,1.0753,1.841,3.334,-5.413
3646,0.1121,-0.0054,1.0589,-9.191,-1.372,-11.02
3668,-0.0109,-0.1119,1.1344,-8.907,7.086,-1.182
3689,0.0275,0.0574,1.1303,-1.658,-6.009,8.623
3711,-0.0216,0.02,1.2415,4.853,5.385,-2.843
3731,0.0043,-0.0017,0.9707,5.833,11.188,-7.783
3749,-0.0754,-0.099,1.1579,3.815,1.96,2.824
3767,-0.0,-0.0149,0.908,-0.753,-3.184,-2.394
3790,0.0022,-0.0438,1.2394,7.325,-3.886,2.187
3812,0.0899,-0.0608,1.0455,-3.612,-0.81,3.304
3832,-0.0898,-0.0068,1.0542,-1.705,3.38,-2.533
3852,-0.014,-0.0268,1.099,-7.105,-7.468,2.074
3874,0.0644,-0.0235,0.8645,-1.727,-1.549,-0.177
3892,-0.0121,0.037,0.8925,-4.309,0.658,-9.839
3911,-0.0086,0.0128,1.0116,7.689,7.771,-2.623
3932,-0.0417,-0.0248,1.0346,6.705,9.309,-4.149
3951,-0.0466,-0.0311,1.2083,0.316,-0.658,-7.541
3971,-0.0913,-0.0227,0.9051,2.335,-5.542,-4.236
3991,-0.0315,-0.0124,1.154,-3.021,0.701,3.356
4011,-0.0495,0.0292,0.9734,-12.683,0.88,0.07
4033,0.0059,-0.0521,0.972,-3.812,5.931,-9.279
4054,-0.0394,0.0729,0.9836,3.74,-2.218,-5.554
4075,-0.024,0.0292,0.9695,2.191,-4.945,0.076
4092,-0.0226,-0.1369,1.0487,-1.96,-0.058,-0.015
4111,-0.0024,0.0043,0.9605,3.698,-1.701,-1.602
4130,-0.0264,0.052,0.859,-2.354,-1.833,3.767
4148,-0.0531,0.0194,0.9732,-5.708,-4.341,1.845
4167,0.0043,-0.0206,1.0457,3.698,-6.277,-2.857
4187,0.0534,-0.0031,0.8598,-3.059,3.052,-3.376
4208,0.0064,0.0089,1.0582,5.133,1.32,-1.008
4226,-0.0305,0.0385,1.1181,-9.988,-4.018,-10.418
4246,-0.0062,-0.0708,1.148,-2.848,4.1,1.461
4265,-0.1025,-0.0303,1.0338,2.986,-9.213,-6.282
4285,-0.007,0.0819,0.8195,2.469,-2.04,6.048
4306,-0.02,0.0016,1.0648,-1.106,1.077,-8.56
4327,-0.0467,0.0764,1.0967,1.437,5.539,1.848
4349,-0.0376,0.1493,0.9303,0.701,-2.778,-9.956
4369,-0.0205,-0.0246,0.9927,-7.445,5.62,-3.228
4388,0.0496,-0.0599,1.0484,-1.818,-3.259,1.978
4407,0.0546,-0.0133,1.1787,1.137,4.107,4.587
4428,-0.0464,0.0549,0.9744,2.531,8.411,4.335
4448,-0.0259,0.0619,1.0891,-0.326,-5.0,3.436
4466,-0.0246,0.1136,1.0316,-2.76,0.757,3.991
4487,0.0405,-0.0018,1.0199,-6.672,2.703,4.414
4507,0.0073,0.0244,1.133,3.764,-6.221,-2.83
4531,0.0046,-0.0356,0.9169,3.214,2.162,-1.941
4554,0.0268,-0.1253,1.023,4.936,-2.832,3.348
4572,-0.0298,-0.002,1.0027,-5.392,-4.215,5.435
4592,0.0682,-0.0577,0.8493,0.61,-2.117,-0.846
4610,-0.0001,0.0322,1.1233,-3.461,-2.48,-2.784
4629,-0.0428,-0.0941,1.0829,0.232,4.003,-2.952
4649,-0.0115,-0.037,1.0034,14.533,-0.005,-4.264
4671,0.0616,0.0134,0.9739,4.518,11.554,2.221
4690,-0.0213,0.0186,1.0,-3.778,-2.68,5.538
4709,0.0475,-0.0024,1.0707,-1.263,2.369,2.296
4726,-0.0313,0.0934,1.0053,-1.81,-0.753,-0.22
4745,-0.0383,0.0785,0.9332,0.62,-6.381,9.46
4764,0.033,-0.0342,0.9483,-7.62,7.952,-0.093
4783,-0.0437,0.0805,0.9988,1.619,0.598,6.847
4802,0.0411,0.0881,0.9067,-10.588,-3.905,-5.491
4822,0.0176,-0.0062,1.0333,-8.364,1.999,1.044
4839,-0.0437,0.0023,0.9207,10.008,5.167,-4.947
4857,-0.0036,-0.0025,0.9046,-1.804,-4.244,-4.636
4880,-0.0274,-0.0322,1.3193,7.131,0.252,-4.07
4898,0.0174,-0.0273,1.194,-4.051,5.202,0.305
4916,0.0944,0.066,1.0144,-10.508,0.825,-2.32
4939,-0.0185,0.0219,1.0851,-5.253,2.771,-10.355
4964,0.0267,-0.0277,1.1021,13.44,-1.32,-2.18
4982,0.0012,-0.0463,0.9925,-7.053,-7.864,-3.13
5001,0.0012,-0.0379,1.0283,8.882,-1.259,-8.745
5022,-0.0083,-0.0082,0.9738,1.726,-2.803,2.264
5044,-0.0429,0.0457,1.1256,0.599,-0.545,3.326
5063,0.0168,-0.043,1.1269,-3.743,-2.748,3.084
5082,-0.0144,0.0451,1.1562,-4.506,0.851,8.516
5104,-0.0452,0.0098,1.0266,2.82,-1.734,-5.61
5124,0.0507,0.0071,1.2168,6.596,4.044,-5.487
5144,0.005,0.0513,0.9924,0.981,3.078,-0.172
5164,-0.0114,0.0422,1.2047,3.698,-4.622,-0.595
5181,0.067,-0.0702,0.9537,-2.128,6.283,0.668
5201,-0.0918,-0.0542,0.8703,10.865,-3.616,4.18
5221,0.0636,-0.0115,1.2028,1.193,-5.622,-1.279
5241,-0.044,0.0178,1.066,10.166,5.277,5.164
5260,0.0106,0.0682,1.0519,-4.826,-2.962,-3.857
5281,-0.0294,0.0033,0.964,-0.225,0.489,-2.535
5302,-0.0462,0.0852,0.9155,5.357,-6.439,-5.555
5323,0.0657,-0.0353,0.925,0.71,-1.83,-17.057
5343,0.0928,-0.0269,1.0139,2.589,-0.577,-8.751
5363,-0.0111,-0.0153,0.985,-4.889,-1.963,4.475
5383,0.0168,-0.0409,0.8059,-2.027,-2.569,5.513
5402,0.0028,0.058,1.1694,-4.377,0.205,-6.396
5423,0.0865,-0.1385,0.958,-0.428,4.95,4.657
5443,-0.1057,-0.0252,1.1238,-0.942,-4.708,-12.142
5466,0.0189,0.0574,0.9294,-2.645,-12.637,-5.157
5488,-0.0364,-0.0156,1.0155,3.162,6.198,-2.338
5509,-0.1178,0.0536,1.0972,-5.326,-3.292,5.269
5527,-0.018,0.1099,1.0834,-10.746,-2.866,9.032
5546,0.0924,0.004,0.9732,-2.858,-2.727,-2.316
5568,-0.0328,0.0584,1.0509,10.762,-6.642,-0.342
5588,0.0395,0.121,1.0676,2.549,-1.975,5.204
5609,0.0599,0.0201,0.9852,-4.231,-1.399,11.239
5626,-0.0006,-0.0024,0.8886,2.225,2.176,5.94
5647,0.006,0.0451,0.9375,-0.671,-2.738,-6.051
5668,-0.0858,0.0592,0.9621,1.938,-12.207,4.379
5686,-0.0358,-0.0019,1.0026,4.404,-6.687,-3.23
5706,0.0454,-0.0242,1.1592,0.968,5.577,7.005
5726,0.003,0.0859,1.0907,0.603,-4.201,3.165
5746,0.0184,-0.0135,0.9184,7.433,2.729,-5.114
5766,0.0067,0.0597,1.1837,2.698,-3.567,5.526
5786,0.1096,0.0131,0.9921,0.974,4.064,2.645
5805,-0.0215,0.0913,1.0672,0.211,0.495,1.992
5826,0.0803,-0.0425,0.9061,-2.829,-7.257,0.15
5848,0.0067,-0.0425,0.9548,-6.228,-5.855,-2.618
5864,0.0847,0.0427,1.1038,3.352,-7.449,3.086
5884,-0.0612,-0.0565,0.9121,6.383,4.562,11.008
5904,0.0092,0.0058,1.0055,2.139,-6.294,9.541
5924,-0.0197,0.0774,1.0471,2.83,-1.846,-0.922
5944,0.007,-0.0892,0.8977,-4.435,-0.401,-10.52
5961,0.0611,0.0201,0.8222,-2.981,1.11,-2.738
5982,0.0189,0.0606,1.0907,-6.409,-2.305,0.73
6004,0.061,-0.0013,1.2863,-1.248,-7.878,1.426
6022,-0.0335,-0.0464,1.0459,4.916,-6.034,4.492
6043,-0.0411,-0.0131,1.0651,-3.487,-5.26,3.631
6063,0.0008,-0.0419,0.9116,-0.373,-13.241,3.705
6083,-0.0019,0.0035,1.147,3.512,2.158,-3.167
6101,-0.0093,-0.0138,0.9623,6.041,2.527,-2.615
6120,-0.0479,-0.0257,1.1164,-8.235,-5.359,-5.407
6142,0.0599,0.0233,1.0607,-2.383,6.523,1.3
6163,-0.0181,0.079,1.0632,-3.691,-0.532,4.326
6186,0.0713,0.0164,1.0593,-4.384,4.237,5.345
6208,0.0006,0.0672,1.0561,-1.915,3.879,-12.541
6228,0.0324,0.0789,1.0283,-9.737,-0.671,2.353
6251,0.0279,-0.0293,1.0969,-1.838,-10.147,-5.21
6272,-0.0412,0.0137,0.9274,0.175,0.995,2.951
6293,0.0184,-0.0212,0.9761,-5.216,2.632,-5.243
6312,0.0964,-0.0741,1.1468,-2.409,-3.263,3.673
6332,0.0126,0.0178,1.0173,0.098,0.804,-3.237
6351,0.0451,-0.0526,0.9674,0.599,-0.143,-3.131
6373,0.0347,0.0242,1.1035,-8.172,-4.766,4.018
6391,0.0154,-0.0778,1.0837,3.501,-0.499,-2.758
6412,0.0093,0.0085,0.87,3.622,-2.546,4.794
6432,0.0274,-0.0785,1.073,-3.712,1.875,3.71
6454,0.0382,0.0337,1.0137,8.39,-2.95,-0.556
6475,-0.0676,-0.0197,1.0712,2.279,-3.558,-2.268
6498,0.0124,-0.0245,1.0011,1.556,-8.189,6.381
6519,-0.0092,0.0563,1.0464,3.415,11.032,4.15
6536,-0.0196,-0.0161,0.8169,-5.165,-2.263,8.212
6556,0.0648,0.0055,0.9105,-1.767,-5.653,-8.714
6575,-0.0367,-0.0099,1.074,3.088,3.018,-1.445
6594,-0.0697,0.0254,1.2621,-3.989,0.935,-2.277
6616,0.0398,0.0521,1.0367,-1.762,2.741,2.561
6637,-0.071,0.0418,0.9307,3.005,3.27,-4.745
6656,-0.0964,-0.0233,1.0135,1.549,5.485,-4.041
6674,0.0454,0.0605,0.9107,0.105,-5.324,0.205
6694,0.0079,-0.0458,1.125,0.313,0.733,-9.378
6713,0.0236,-0.0371,1.0048,-0.874,-7.895,-10.058
6732,-0.0221,-0.0064,1.1053,4.264,-1.534,-0.576
6752,-0.0692,0.0523,0.9847,10.45,3.353,13.271
6774,-0.0593,-0.0585,1.1142,1.463,-4.476,0.568
6795,-0.0136,0.0446,0.8376,6.41,11.154,-1.883
6811,-0.0636,-0.0027,1.0024,-2.184,0.09,2.157
6832,0.0154,-0.0217,1.054,-3.408,-9.052,2.892
6852,-0.0231,0.0549,0.9732,-3.941,3.526,-0.641
6872,0.0093,-0.0401,1.036,-4.592,11.101,-3.381
6895,0.0078,0.1143,1.0343,-1.468,-11.182,-7.842
6912,0.0193,-0.0088,1.1049,4.431,3.572,4.503
6931,0.025,0.0075,1.0622,5.015,-4.947,-2.354
6952,-0.0172,0.0771,1.0393,-2.548,-0.27,2.371
6969,0.0092,0.0088,1.0879,-1.62,-6.546,5.283
6992,0.0118,0.0594,0.8647,-0.01,4.267,-1.534
7012,-0.1214,-0.0977,0.9248,1.17,-1.592,-7.327
7033,0.0323,-0.0221,0.8615,2.934,5.802,-1.132
7053,0.0075,0.0198,1.0549,-1.996,-5.148,-0.778
7074,0.0282,0.0541,1.0414,-1.002,-1.033,2.476
7095,-0.0643,0.0385,1.1385,6.773,-11.569,-2.86
7116,-0.0158,0.0338,1.0352,-1.393,12.989,-3.115
7136,-0.0546,0.0531,0.9368,-2.873,9.598,-1.928
7157,0.0372,0.0238,1.0134,-0.428,10.896,1.859
7175,-0.0703,-0.1072,0.8125,0.391,7.666,4.5
7195,-0.0464,0.0721,0.9592,-7.704,-2.955,11.667
7215,0.0267,-0.0419,0.7653,-2.218,-0.221,9.645
7235,-0.0315,0.0157,1.0329,2.1,1.457,-0.668
7257,-0.0464,0.0091,0.9721,10.022,1.872,-3.594
7275,0.0453,0.0024,0.9868,-2.644,-5.478,-3.117
7295,0.0474,-0.0553,0.9068,3.824,-5.729,-6.563
7317,0.0361,-0.0969,0.9331,0.896,-6.685,0.621
7336,0.0424,-0.0501,1.0693,5.8,-2.133,-4.952
7355,-0.0116,0.0413,0.8564,-3.094,-1.6,-5.535
7375,-0.0102,-0.0723,1.0506,5.516,-2.263,-5.205
7397,-0.0324,-0.044,0.9189,7.01,1.256,4.442
7417,0.0084,0.0209,0.8319,7.223,-6.914,-0.413
7439,-0.0264,-0.0514,1.1226,7.137,-4.272,-6.814
7460,-0.0217,-0.0272,1.1329,0.954,-3.802,4.406
7481,0.03,0.0041,0.9461,2.925,4.095,5.956
7502,0.0592,0.0141,0.9451,-2.098,0.987,-2.299
7525,0.0199,-0.0524,0.9749,-11.115,1.691,-3.918
7545,0.0897,0.007,0.919,1.279,-4.67,-4.362
7562,-0.0353,0.0199,0.9366,-0.805,0.202,1.326
7585,-0.0919,-0.0637,1.045,4.815,-3.872,4.558
7604,0.0357,0.0107,1.2074,4.31,-3.701,0.843
7624,-0.0386,-0.0358,0.9645,-5.311,1.848,-6.728
7646,-0.0137,0.0062,1.1023,11.696,-3.234,5.321
7664,-0.0885,0.0362,1.0353,1.941,-0.528,-0.272
7682,-0.045,-0.0088,0.8328,-6.421,-1.349,-1.005
7699,-0.0751,0.0457,0.9976,-5.721,-5.871,2.155
7718,-0.0217,0.0395,0.985,-10.889,-2.888,5.217
7739,-0.0197,0.0454,1.1465,3.818,-2.807,-5.693
7760,0.0045,0.0202,1.1505,-2.634,-1.908,-6.708
7780,0.062,0.055,1.0377,-4.202,-9.015,-0.24
7798,0.0338,0.0193,1.1214,-3.22,-3.646,-0.181
7814,-0.0811,-0.0834,0.9854,-1.503,4.559,4.512
7834,0.0304,-0.0396,1.1119,2.878,2.187,6.339
7854,0.0056,-0.0106,1.01,-8.222,-1.997,-2.515
7874,-0.0049,-0.0044,1.1098,-5.349,-5.899,1.642
7895,-0.0011,0.0179,1.1199,2.325,0.502,2.297
7916,0.0102,-0.0403,1.0716,-2.97,4.838,2.784
7937,-0.0346,0.1004,0.9258,2.911,7.585,-8.106
7957,-0.0091,-0.0051,0.9579,-2.487,-2.62,2.608
7978,0.0592,-0.0004,1.0752,7.874,-5.3,-4.157
7997,-0.0352,-0.0335,1.0893,1.043,2.409,2.86
8017,-0.0515,-0.0502,1.0158,6.131,1.796,-5.784
8037,-0.0031,-0.0063,0.9688,2.589,0.052,0.293
8058,-0.0565,0.0014,1.0191,2.891,-3.176,-1.548
8078,-0.0861,-0.0043,0.9722,-3.762,-6.544,10.648
8098,-0.0172,0.0828,0.9727,5.837,3.373,-4.484
8118,0.0724,-0.0063,1.196,1.079,4.483,-4.86
8138,-0.0019,-0.0043,0.9525,-4.769,-1.8,7.32
8159,0.0089,0.0408,1.0508,-10.55,8.553,4.237
8176,-0.1065,-0.0086,1.0153,0.7,1.181,1.188
8194,0.0219,0.027,0.8773,7.539,-0.875,-2.599
8212,0.0047,-0.064,0.8739,-4.536,-5.914,-5.964
8228,-0.0332,-0.0636,0.9919,-4.704,-8.502,-2.37
8247,0.009,0.0061,0.8047,-1.581,-2.56,-2.898
8268,0.0085,-0.0116,1.183,5.506,1.844,-3.727
8288,-0.053,-0.0405,0.9638,-9.184,11.668,-2.784
8308,0.0166,0.0061,0.9557,-3.251,0.338,-3.017
8330,0.0599,0.0105,1.1223,-5.029,2.961,4.602
8352,-0.0114,-0.0355,0.9859,2.811,-4.136,-7.18
8372,-0.0434,-0.0259,1.0651,-0.714,1.043,1.756
8394,-0.0089,0.0108,0.9427,-1.733,0.39,1.132
8414,0.0427,-0.0511,1.0045,-0.9,-4.727,-0.536
8433,-0.0613,-0.0302,1.0968,3.924,6.691,3.13
8452,0.0289,0.0267,0.9138,5.608,-0.67,1.942
8470,-0.0339,-0.0012,1.0528,5.123,5.527,0.301
8488,0.0121,-0.0239,0.7583,2.877,0.048,5.315
8508,-0.0282,-0.0452,1.1266,6.92,-1.657,-12.481
8529,-0.0284,-0.0507,0.9444,-4.658,-3.906,10.755
8552,0.0762,-0.0066,0.9914,1.938,-1.752,5.669
8569,-0.0705,0.1013,0.9902,11.743,7.323,8.435
8590,0.0243,0.0283,0.9025,-9.184,-4.493,-4.555
8609,0.0866,-0.0666,0.8948,-2.671,3.332,0.191
8629,0.0343,0.0354,1.0521,-5.179,-1.556,1.4
8649,-0.0666,-0.0379,1.0568,1.444,2.947,-2.007
8666,-0.0641,-0.0002,0.9115,7.189,1.034,0.753
8688,-0.0376,-0.0294,1.0541,2.688,-6.666,1.174
8707,0.0079,0.1011,1.0558,-1.087,0.828,-6.134
8726,0.0113,-0.0567,0.9622,2.728,10.829,3.576
8744,-0.0636,0.0157,0.8707,-1.449,1.537,3.163
8763,-0.0436,-0.0343,0.9962,0.972,4.635,-3.514
8784,-0.0406,0.0369,1.0365,3.093,1.486,-6.621
8804,-0.009,0.0147,0.9941,8.764,3.941,0.522
8824,0.0992,0.0627,0.9408,2.247,-3.59,-4.221
8845,-0.0467,0.0359,1.0467,1.088,-0.607,1.344
8867,-0.0488,-0.0347,1.1265,10.177,4.4,-3.967
8886,-0.0567,0.1458,0.923,-9.78,-1.751,7.488
8904,0.0318,0.0278,0.9702,-0.46,5.361,-3.437
8926,-0.0021,-0.0275,1.2743,-3.706,-5.018,-4.47
8945,-0.0448,0.0103,1.0291,-1.192,0.294,0.12
8967,-0.0181,0.0315,0.8733,3.02,-1.294,-7.993
8987,-0.0396,0.0296,0.9522,4.903,13.191,-4.329
9007,0.0148,0.0248,0.9243,-2.602,-1.949,-8.281
9028,0.1342,0.0483,1.038,3.346,2.101,1.061
9051,0.0275,0.0434,1.0308,-4.488,-9.957,4.638
9074,-0.0046,-0.0424,0.9364,-6.402,-5.839,-2.148
9094,-0.0332,0.1054,1.1856,0.354,1.529,6.272
9114,-0.0672,0.0984,1.0085,-1.093,-1.319,-4.251
9136,0.0367,0.04,0.9544,7.453,-1.223,-2.332
9154,0.034,0.0019,0.8779,10.642,-1.625,4.474
9175,-0.0233,0.0028,0.9105,-3.043,-0.925,3.581
9195,0.0607,-0.0162,0.8754,-9.058,-8.557,2.282
9215,0.0011,-0.0097,0.9809,-6.836,-0.434,5.55
9234,0.0387,-0.1093,0.9115,-4.178,-1.097,-0.257
9252,0.0148,0.0765,1.0784,1.037,5.332,1.515
9269,-0.0089,0.0589,0.9416,-1.306,4.176,-3.406
9287,-0.0477,-0.0838,1.084,-6.293,-14.144,9.63
9306,-0.0073,0.0445,1.0491,8.931,-3.673,-2.251
9326,0.0421,-0.0004,1.0646,3.314,9.011,-1.065
9349,-0.0254,-0.01,1.0897,8.795,4.53,1.048
9370,0.022,0.0246,1.1993,-9.005,2.454,3.336
9389,-0.0541,-0.0871,0.9151,6.363,-2.514,3.284
9409,0.039,-0.0006,1.0846,-0.745,3.7,-13.546
9429,0.0156,0.004,1.0398,-1.959,-7.577,8.835
9448,-0.0601,0.004,1.1063,0.122,-2.83,8.049
9469,-0.0112,-0.0684,1.0111,-3.497,1.724,6.262
9490,0.0466,0.0223,1.1176,-0.715,3.038,0.733
9509,-0.063,0.053,0.8708,4.732,1.082,6.238
9531,-0.0535,0.0204,0.8996,-9.815,1.968,1.31
9549,-0.0035,-0.0115,0.9431,7.487,0.821,1.248
9569,0.1067,0.1345,0.9925,1.962,-1.576,3.491
9593,-0.0336,-0.0462,1.0046,-0.551,6.703,2.717
9613,0.0248,0.0387,0.926,4.678,9.257,5.12
9635,0.013,0.0122,0.9009,1.819,-0.254,-10.759
9656,-0.0295,0.1006,0.9345,-2.4,-5.876,-0.444
9676,0.0081,0.0193,0.8291,-3.864,-1.175,-6.105
9696,-0.0224,0.0301,0.9712,7.498,0.434,4.655
9716,-0.0179,0.0253,0.9942,-7.395,-11.05,-4.561
9735,-0.0831,-0.0529,1.0441,-0.985,6.692,-1.415
9756,-0.0012,-0.0434,1.0167,-7.052,-3.191,4.681
9774,0.045,-0.0138,1.1793,2.439,-4.134,6.541
9795,0.0029,0.0479,1.0812,-0.485,-1.698,4.415
9817,0.0545,0.0117,1.0737,-6.248,-2.364,3.765
9837,0.029,-0.0103,1.0365,-4.345,0.283,-5.936
9857,-0.003,0.0686,1.0536,0.222,3.948,-5.086
9878,-0.0314,-0.0991,0.9779,1.425,6.378,-6.702
9897,-0.0243,-0.0648,1.01,-9.686,3.953,-5.28
9919,-0.0735,-0.1248,1.1922,-3.527,-4.714,0.791
9936,-0.0134,0.0604,0.993,0.802,-0.545,5.028
9955,0.0073,-0.0048,0.8668,6.049,0.523,5.01
9972,0.0858,0.0483,1.0697,4.196,1.536,-9.258
9990,0.0264,-0.0055,1.0875,-2.275,2.446,-0.182
10012,0.0041,0.1402,1.1968,13.114,17.271,14.73
10034,0.0593,0.1097,1.0087,20.932,24.86,6.94
10052,0.1838,0.1534,1.3286,17.675,35.589,23.817
10070,0.2896,0.1574,1.2181,49.897,34.832,24.006
10086,0.2782,0.1662,1.153,51.871,43.02,16.556
10105,0.3517,0.2332,1.282,56.587,43.929,16.741
10129,0.3388,0.0576,0.9237,59.666,46.558,16.176
10149,0.3836,0.1192,1.0993,61.122,37.704,14.275
10168,0.2513,0.1112,0.9938,56.814,39.557,5.303
10189,0.3755,0.0749,1.15,49.174,24.375,-0.242
10207,0.1956,0.0245,0.9846,39.796,20.922,-5.42
10226,0.2331,-0.0139,0.833,33.546,15.094,3.189
10246,0.1095,0.0555,0.9943,16.696,-2.679,-2.432
10266,0.0407,-0.0573,0.6016,2.256,-8.605,-17.831
10288,-0.0524,0.0353,0.8712,-5.572,-19.489,-20.338
10308,-0.1045,-0.0855,0.6789,-15.211,-24.234,-23.491
10329,-0.1687,-0.1467,0.7538,-36.828,-33.475,-27.059
10348,-0.1967,-0.1167,0.7809,-45.909,-35.01,-10.239
10369,-0.23,-0.1444,0.9119,-59.97,-39.252,-22.995
10392,-0.3199,-0.0793,1.0701,-64.261,-41.388,-13.548
10410,-0.2633,-0.1951,0.7016,-66.221,-38.241,-16.668
10429,-0.342,-0.2104,0.961,-54.546,-39.611,-12.902
10451,-0.2701,-0.0766,1.1839,-64.215,-35.204,-8.909
10471,-0.2645,-0.0243,0.9514,-46.728,-30.374,-1.276
10493,-0.2549,-0.0166,0.9942,-40.322,-24.792,0.923
10512,-0.1565,0.0347,1.1208,-25.349,-11.055,9.779
10534,-0.0593,0.0643,1.2201,-8.652,4.941,16.337
10555,-0.0038,-0.0029,1.2334,-0.527,10.592,11.158
10575,0.097,0.113,1.1519,18.757,19.933,18.062
10597,0.2014,0.1895,1.1187,34.854,25.785,10.926
10617,0.2229,0.1481,1.3301,45.151,43.21,17.332
10635,0.1266,0.0823,1.1119,43.583,38.087,19.928
10655,0.3997,0.1331,0.9785,44.281,36.73,17.766
10675,0.3267,0.172,0.9968,57.931,34.588,16.184
10693,0.3088,0.2226,1.0532,60.884,46.967,16.75
10714,0.2853,0.0148,1.2178,48.772,27.68,14.074
10733,0.3004,0.107,0.908,54.691,25.671,-4.059
10755,0.2429,0.0099,1.1294,33.606,18.148,2.631
10771,0.19,0.0559,1.0725,46.61,15.586,-3.472
10790,0.1306,0.0279,0.9249,30.629,9.333,-8.508
10808,0.1254,-0.0434,0.6142,12.867,-0.197,-2.845
10826,0.1305,-0.0292,0.7228,5.604,-10.438,-21.927
10847,-0.0129,-0.0343,0.7537,-7.986,-24.549,-16.587
10866,-0.0703,-0.1228,0.9771,-19.252,-15.539,-11.216
10886,-0.2152,-0.2002,0.7431,-33.316,-29.9,-19.334
10906,-0.2511,-0.0741,0.729,-39.219,-33.198,-24.723
10926,-0.2819,-0.1085,0.8412,-58.326,-42.392,-20.318
10945,-0.3665,-0.1191,0.7051,-57.825,-41.484,-8.771
10966,-0.3704,-0.1709,0.8779,-50.918,-33.086,-9.049
10987,-0.3024,-0.0686,0.8416,-60.923,-46.741,-13.943
11007,-0.2688,0.0081,1.2335,-54.211,-26.947,0.303
11028,-0.2793,-0.07,0.9202,-53.428,-25.122,0.396
11048,-0.2889,-0.0271,1.2495,-28.497,-14.003,-10.989
11072,-0.1646,-0.0446,0.9918,-24.257,2.65,6.471
11091,-0.151,0.0044,1.1659,-19.823,0.51,19.962
11111,0.0033,0.018,1.2182,5.376,-1.737,13.546
11130,0.087,0.1047,1.2016,7.354,14.197,24.578
11148,0.1283,0.102,1.2057,27.731,26.356,11.59
11166,0.2157,0.1537,1.2859,40.05,40.088,13.231
11185,0.2805,0.1013,1.2348,54.638,34.332,25.621
11205,0.3185,0.1416,1.1591,53.515,46.87,23.419
11225,0.276,0.0988,1.0833,57.862,28.371,17.253
11246,0.337,0.1441,1.099,49.804,36.191,18.913
11264,0.3661,0.037,1.0624,56.966,41.061,8.534
11286,0.4003,0.1,1.0128,51.524,35.128,1.482
11307,0.2662,0.0481,0.9929,47.055,13.67,4.45
11327,0.253,0.0388,0.8,36.05,11.375,-3.432
11346,0.2071,-0.0849,0.7987,31.907,6.668,-4.112
11366,0.0798,-0.0031,0.9482,12.561,-4.965,-9.27
11387,0.0649,-0.084,0.609,3.659,-5.155,-15.722
11405,-0.0033,-0.0837,0.9346,-11.45,-18.485,-7.213
11424,-0.0663,-0.2107,0.7471,-26.318,-32.902,-23.808
11445,-0.1846,-0.1981,0.9674,-39.139,-29.871,-19.05
11464,-0.1448,-0.1658,0.9303,-43.892,-33.934,-20.404
11484,-0.3387,-0.0812,0.7922,-45.941,-44.987,-17.541
11502,-0.229,-0.1204,0.8258,-61.122,-44.454,-17.237
11524,-0.3113,-0.1281,1.0442,-59.708,-42.242,-9.136
11545,-0.2764,-0.1614,1.0539,-56.446,-28.37,-9.33
11565,-0.3354,-0.1461,1.0674,-54.861,-30.488,-10.108
11586,-0.2346,-0.0463,1.1319,-56.256,-34.037,-7.376
11602,-0.1624,0.0006,0.9443,-37.678,-22.741,-2.475
11620,-0.2306,0.0063,1.1115,-37.749,-5.454,1.311
11640,-0.1121,0.115,1.0516,-25.285,-2.105,12.954
11658,-0.1413,0.0246,1.0456,-12.395,1.887,12.502
11679,0.0397,0.0985,1.1981,7.533,15.127,18.123
11702,0.0954,0.0328,1.1557,18.526,30.663,11.75
11721,0.1909,0.1452,1.1832,27.416,42.571,18.177
11739,0.4016,0.2187,1.1439,45.69,35.681,22.393
11760,0.3905,0.0979,1.0515,52.076,41.525,24.394
11782,0.2657,0.188,1.3182,61.672,39.476,9.793
11800,0.3771,0.2079,1.134,56.234,39.975,22.647
11821,0.3846,0.0827,0.9329,58.769,30.953,18.434
11843,0.3022,0.1138,1.0476,58.701,37.205,11.896
11861,0.2923,0.1434,1.1409,42.018,21.715,9.192
11879,0.2498,0.0472,1.0445,37.156,11.546,-3.088
11898,0.1082,0.0431,0.8567,35.051,5.089,-9.414
11918,0.0516,-0.1186,0.8215,17.776,3.288,-9.18
11939,0.0302,-0.0338,0.743,2.939,-12.941,-11.957
11959,-0.0524,-0.0667,0.742,-10.026,-10.34,-19.563
11976,-0.1577,-0.1797,0.7385,-14.846,-21.228,-15.365
11997,-0.2357,-0.1815,0.6532,-33.721,-26.886,-12.642
12016,-0.2578,-0.1147,0.7613,-43.199,-37.909,-15.508
12038,-0.2607,-0.1651,0.8577,-52.369,-42.206,-18.944
12057,-0.3384,-0.0913,0.8059,-65.438,-39.835,-29.733
12076,-0.2677,-0.1216,0.9001,-57.281,-44.997,-22.754
12097,-0.3806,-0.1162,1.0813,-63.39,-33.576,-12.029
12118,-0.3138,-0.1027,1.148,-61.758,-26.211,-4.184
12139,-0.3006,-0.0494,1.005,-57.229,-27.387,-9.926
12156,-0.2089,0.0032,1.1377,-48.546,-13.912,1.5
12177,-0.2104,0.025,1.0772,-40.713,-7.122,9.248
12196,-0.0059,0.0092,1.0806,-22.66,5.719,9.324
12216,-0.1091,0.1245,1.0486,-6.392,17.323,10.226
12234,0.1323,0.1216,1.1898,13.275,20.7,8.658
12255,0.1313,0.134,1.3044,22.04,24.58,22.283
12273,0.2178,0.1365,1.0726,33.861,36.712,16.343
12291,0.3123,0.1686,1.167,48.502,35.474,28.231
12313,0.3423,0.0583,1.146,37.079,37.486,20.234
12333,0.296,0.1596,1.1799,58.951,36.945,19.567
12352,0.3781,0.2203,1.1511,61.256,39.715,19.499
12374,0.4397,0.1308,1.1362,63.482,41.117,9.88
12394,0.2817,0.1007,1.2292,46.915,26.147,10.116
12414,0.3952,0.0385,0.9075,46.712,18.721,0.208
12434,0.2569,0.0612,0.8573,36.087,11.169,-5.074
12453,0.1557,-0.005,0.9344,23.973,14.289,-9.862
12474,0.0568,0.0348,1.0155,28.953,1.753,-12.139
12493,0.0165,-0.1045,0.6945,1.915,-1.389,-2.908
12512,-0.1451,-0.1117,0.8518,-3.482,-19.477,-20.619
12534,-0.1521,-0.1461,0.7833,-18.979,-31.406,-15.458
12553,-0.2106,-0.0419,0.8855,-41.051,-23.534,-20.842
12569,-0.3,-0.1532,0.8672,-44.838,-38.963,-25.679
12592,-0.2645,-0.1773,0.8265,-51.458,-35.565,-15.32
12615,-0.3482,-0.2506,0.8997,-55.846,-46.653,-19.775
12635,-0.3815,-0.1802,0.8188,-58.288,-37.792,-16.783
12652,-0.3624,-0.0932,0.998,-50.576,-36.863,-6.246
12671,-0.3094,-0.0713,1.0974,-51.535,-38.642,-9.239
12691,-0.2873,-0.102,1.0137,-46.593,-15.737,-2.489
12711,-0.275,-0.0677,1.0077,-36.286,-22.029,0.756
12729,-0.1772,0.0852,1.0722,-24.682,-14.637,4.446
12750,-0.1107,0.1625,1.2056,-21.656,-3.838,2.741
12771,-0.0838,0.1191,1.1553,-12.492,-2.036,17.528
12788,0.0259,0.1646,1.0597,3.888,14.514,16.969
12810,0.1537,0.2027,1.291,14.517,21.394,22.44
12833,0.2333,0.246,1.1014,30.169,36.896,20.363
12853,0.2516,0.1313,1.2347,45.605,38.102,25.217
12872,0.3401,0.1061,0.9894,49.738,32.822,19.895
12892,0.2875,0.238,1.161,60.921,36.724,24.207
12913,0.3022,0.0863,1.1081,61.466,49.449,9.989
12930,0.3335,0.0679,0.8848,61.143,31.445,7.668
12951,0.3988,0.0443,1.0696,49.208,35.011,16.4
12970,0.2964,0.061,0.8834,45.024,21.364,7.472
12993,0.2137,-0.0683,0.9508,29.446,10.837,7.48
13013,0.2392,-0.0745,0.8597,30.616,4.503,-3.202
13035,0.0663,-0.0708,0.7131,23.434,4.653,-12.141
13053,0.1219,-0.1279,0.7303,2.628,-18.048,-4.602
13074,-0.098,-0.0445,0.7164,-11.087,-16.195,-26.014
13095,-0.2016,-0.1213,0.8998,-28.545,-21.054,-14.956
13114,-0.2232,-0.1087,0.8844,-37.917,-35.55,-32.579
13134,-0.2838,-0.1241,1.0294,-40.145,-32.108,-12.333
13156,-0.3578,-0.16,0.7799,-53.964,-35.43,-23.819
13175,-0.2115,-0.0947,0.8034,-55.359,-43.905,-18.259
13193,-0.334,-0.1102,0.9027,-53.488,-43.15,-19.002
13213,-0.3191,-0.1297,0.8938,-53.181,-35.682,-7.679
13231,-0.3436,-0.1759,0.9104,-54.783,-29.704,-7.92
13251,-0.3097,-0.0367,1.0192,-47.61,-25.452,4.295
13271,-0.1755,-0.0936,1.1285,-40.812,-12.935,-1.397
13288,-0.2555,0.0171,0.8824,-26.938,-12.313,-0.237
13306,-0.1636,0.0324,1.0702,-20.321,-4.923,7.074
13326,-0.0414,-0.0073,1.0185,-3.22,8.634,21.333
13346,0.1175,0.1029,1.1666,13.757,18.298,21.405
13362,0.0928,0.1197,1.2372,10.683,29.938,23.822
13383,0.2072,0.1407,1.3117,22.671,32.63,16.809
13403,0.2495,0.1514,1.1519,42.31,38.973,13.399
13422,0.3599,0.117,1.1923,53.923,36.847,26.572
13440,0.2478,0.1782,0.9927,57.494,38.226,11.245
13461,0.384,0.1053,1.0424,53.463,36.225,15.669
13482,0.3379,0.0692,1.1095,64.132,37.59,8.94
13506,0.371,0.1291,0.9016,65.216,31.78,7.958
13526,0.2463,0.1138,1.1162,44.897,25.09,-5.309
13547,0.2333,0.0638,0.9981,36.167,15.483,2.756
13567,0.1623,-0.0105,0.8135,28.835,7.69,0.921
13588,0.0403,-0.1324,0.7171,14.876,6.74,-5.035
13609,-0.0557,0.0053,0.7624,7.448,-9.533,-19.574
13631,-0.1071,-0.1972,0.7219,-11.965,-17.129,-14.922
13650,-0.1425,-0.0918,0.68,-27.005,-24.622,-19.771
13669,-0.251,-0.0317,0.66,-39.484,-33.517,-19.869
13688,-0.2839,-0.1395,0.7858,-53.482,-34.139,-11.606
13710,-0.4091,-0.1353,0.9025,-47.117,-39.432,-20.98
13732,-0.3613,-0.1245,0.789,-55.623,-46.066,-13.15
13751,-0.2988,-0.1209,0.9383,-60.449,-40.981,-22.496
13771,-0.3049,0.0065,0.9018,-57.772,-24.392,-9.808
13791,-0.3174,-0.1277,1.0399,-54.203,-23.057,-1.391
13811,-0.2578,-0.1042,0.9451,-55.107,-23.445,-2.367
13832,-0.2514,-0.0378,1.0979,-43.101,-10.093,6.193
13849,-0.0714,0.0944,1.1164,-27.18,-4.929,2.784
13867,0.0176,0.0086,1.2729,-15.808,10.811,8.164
13886,-0.0032,0.0891,1.2205,-2.021,9.918,13.211
13903,0.1852,0.1455,1.2089,18.023,18.866,13.667
13921,0.0903,0.1529,1.0487,19.883,20.639,22.853
13940,0.1287,0.1831,1.1475,28.97,30.108,25.095
13960,0.2166,0.2156,1.1145,43.484,22.019,23.227
13981,0.2912,0.1653,1.096,44.813,40.254,6.612
14001,0.4497,0.1242,1.1549,58.047,45.017,15.988
14019,0.3342,0.1455,1.1483,56.08,47.658,19.498
14039,0.3042,0.1045,1.1139,60.643,38.815,11.188
14061,0.2807,0.2221,1.1649,54.913,29.383,6.584
14079,0.3499,0.0442,1.0467,49.503,21.4,8.482
14098,0.2952,0.0651,0.8329,45.184,15.974,4.465
14119,0.1554,-0.0692,0.9313,34.474,1.481,-2.166
14139,0.0139,-0.0213,0.9316,28.635,-0.743,-16.803
14160,-0.0301,-0.0761,0.9665,7.991,-15.037,-18.852
14180,0.0335,-0.0571,0.802,-10.238,-20.413,-14.311
14201,-0.0981,-0.0813,0.7889,-25.88,-26.431,-28.956
14219,-0.192,-0.0623,0.9079,-31.741,-29.483,-11.482
14239,-0.162,-0.0784,0.8239,-36.483,-44.226,-19.297
14259,-0.2047,-0.1533,0.6622,-47.592,-40.694,-22.777
14277,-0.3337,-0.1949,0.6628,-60.46,-36.559,-20.425
14295,-0.3484,-0.1806,1.0567,-57.31,-32.351,-9.509
14316,-0.3767,-0.1071,0.7412,-58.472,-36.926,-18.444
14335,-0.345,-0.093,0.9362,-51.458,-21.264,-18.094
14354,-0.3731,-0.062,1.0837,-49.71,-22.961,-9.387
14373,-0.3275,-0.0722,0.8617,-42.055,-19.149,1.316
14395,-0.2718,0.063,0.9772,-37.737,-4.035,12.78
14412,-0.0713,-0.0537,0.9936,-17.565,-5.211,14.479
14429,-0.1389,0.0184,1.3271,-17.38,-0.239,9.525
14448,0.1116,0.0233,1.3743,2.86,17.992,16.311
14470,0.0632,0.096,1.1187,14.347,24.875,19.463
14491,0.2628,0.1907,1.2578,27.103,34.645,20.514
14512,0.2239,0.1286,1.2271,44.423,40.079,10.153
14530,0.2099,0.1543,1.1564,49.396,48.227,18.045
14548,0.3866,0.1825,1.0023,43.306,32.545,22.369
14569,0.4155,0.1248,1.3646,58.224,37.848,25.395
14589,0.304,0.1459,0.9155,57.935,35.939,14.975
14610,0.3176,0.1169,1.0744,63.579,38.811,14.508
14630,0.2571,0.021,0.9438,45.623,28.924,9.227
14650,0.2491,0.0235,1.0644,53.323,25.617,-1.563
14670,0.2003,0.0313,1.005,37.696,12.878,-10.835
14692,0.0997,0.0405,0.7798,18.721,1.579,-3.188
14713,-0.0545,0.0062,0.7649,4.152,-4.375,-3.556
14730,-0.0598,0.0216,0.6678,-8.462,-13.826,-17.627
14747,-0.0616,-0.0812,0.8279,-14.998,-19.98,-11.684
14768,-0.1837,-0.1483,0.8714,-33.634,-25.924,-18.611
14790,-0.2592,-0.1463,0.7597,-42.206,-32.853,-26.899
14809,-0.3375,-0.1551,0.7921,-55.311,-33.423,-19.324
14826,-0.3533,-0.1696,1.026,-51.767,-39.553,-21.24
14846,-0.2745,-0.1228,0.9585,-58.279,-38.819,-13.957
14867,-0.4062,-0.1051,1.0382,-62.207,-42.347,-10.951
14890,-0.2954,-0.1603,0.7275,-58.035,-27.483,-11.818
14911,-0.2934,-0.0184,1.0534,-54.164,-17.413,-10.642
14930,-0.2368,-0.135,1.0665,-41.126,-27.895,-2.124
14949,-0.2275,-0.0226,0.9569,-38.996,-7.726,12.176
14969,-0.1378,0.0798,1.0166,-16.098,-2.753,2.819
14989,-0.0437,0.0854,1.1317,-6.579,6.066,16.13
15007,0.0016,0.0643,1.0421,2.502,17.944,18.397
15030,0.1331,0.2101,1.1148,22.908,23.717,15.408
15053,0.2203,0.1116,1.1538,35.793,33.281,15.492
15075,0.3712,0.0462,1.2497,39.779,34.683,22.91
15093,0.3178,0.1726,1.1066,58.636,46.569,19.075
15114,0.2406,0.0575,1.1058,45.156,38.828,14.854
15135,0.4078,0.0931,1.2178,65.39,34.89,16.91
15156,0.3333,0.1465,0.8973,58.064,36.962,19.045
15178,0.4169,0.0651,1.0484,59.178,25.301,12.65
15199,0.3457,0.0862,1.0172,53.862,23.46,2.459
15220,0.1875,-0.035,0.9738,34.339,22.081,-19.822
15241,0.1775,0.0303,0.8396,22.341,4.403,-8.688
15261,0.0363,-0.1303,0.7486,12.89,-11.173,-16.48
15279,-0.0047,-0.0078,0.9822,-6.498,-14.423,-15.556
15299,-0.0494,-0.1249,0.7252,-15.922,-16.504,-18.994
15318,-0.0981,-0.0459,0.6896,-28.445,-26.874,-20.59
15336,-0.1694,-0.1795,0.8028,-42.646,-29.226,-14.492
15359,-0.2744,-0.052,0.7381,-50.031,-40.708,-20.921
15381,-0.1977,-0.1972,0.9396,-51.419,-41.846,-19.804
15403,-0.3641,-0.2308,0.8408,-55.88,-36.409,-13.594
15424,-0.4292,-0.1231,1.0243,-60.68,-29.048,-17.985
15446,-0.4017,-0.0393,0.9975,-56.417,-34.216,-10.19
15466,-0.2232,-0.0341,0.9586,-52.422,-25.973,-11.076
15486,-0.2516,0.0157,1.1537,-51.287,-13.207,3.38
15504,-0.1848,0.0281,1.0159,-38.119,-10.517,5.462
15525,-0.1457,-0.0179,1.0897,-15.529,1.366,19.122
15545,-0.0643,0.094,1.2071,-1.16,3.485,4.417
15563,-0.0099,0.0874,1.1994,0.754,15.01,20.319
15583,0.1305,0.0732,1.1259,23.921,19.821,9.15
15603,0.1741,0.1381,1.0462,24.669,21.267,14.475
15626,0.272,0.1416,1.1931,40.318,31.166,9.265
15647,0.3178,0.2207,1.1062,50.974,41.127,19.655
15667,0.312,0.1216,1.1573,55.767,42.757,19.014
15687,0.2758,0.1091,1.0797,56.327,42.915,13.48
15707,0.2692,0.0852,1.0114,60.03,38.701,0.838
15727,0.4779,0.1918,1.0134,59.861,30.288,5.174
15745,0.3682,0.0397,0.9925,43.188,16.573,4.6
15765,0.3114,0.1053,1.0245,42.521,12.496,-5.116
15784,0.1516,-0.0429,0.9568,36.591,15.728,-4.935
15802,0.1219,0.0036,1.0891,18.756,-2.037,-3.217
15823,0.0,-0.0429,0.8596,4.262,-7.657,-15.494
15844,-0.1077,-0.0256,0.7526,-11.475,-16.02,-21.355
15861,-0.1372,-0.0545,0.79,-8.468,-29.936,-18.344
15881,-0.1134,-0.1252,0.8569,-23.336,-28.101,-10.388
15902,-0.2033,-0.1704,0.9046,-43.526,-27.575,-17.474
15924,-0.3477,-0.0686,0.9545,-45.394,-38.896,-26.902
15945,-0.3493,-0.1791,0.7443,-59.809,-41.345,-10.847
15965,-0.3114,-0.2505,1.0066,-60.578,-44.842,-17.129
15984,-0.3754,-0.2138,0.9106,-64.768,-37.674,-13.074
16003,-0.325,-0.18,0.8631,-65.617,-29.183,-14.649
16023,-0.2738,-0.0417,0.9803,-53.276,-25.694,-3.163
16044,-0.2213,0.0723,1.1688,-43.417,-19.921,-8.951
16066,-0.1582,-0.1035,1.1398,-27.168,-3.317,0.082
16087,-0.1269,-0.0053,1.0118,-12.885,-0.216,13.104
16107,-0.0438,0.0702,1.0426,-3.402,7.893,14.317
16125,-0.0019,0.1689,1.0599,4.43,18.359,12.581
16145,0.0528,0.0765,1.1233,19.148,31.788,17.547
16165,0.1946,0.1639,1.2076,42.301,30.794,23.226
16185,0.3004,0.1334,1.0804,47.65,31.845,21.872
16204,0.2347,0.2803,1.1346,59.176,41.763,22.533
16224,0.3486,0.1541,1.2924,66.309,38.341,11.554
16243,0.3881,0.1547,1.2828,56.525,41.803,11.487
16262,0.2549,0.1249,1.2393,63.549,26.019,21.542
16283,0.3124,0.0756,0.8598,51.359,31.457,5.76
16302,0.3735,0.1171,1.1639,55.086,23.992,1.336
16323,0.2649,-0.0215,0.9588,44.826,12.427,-0.482
16343,0.0801,-0.0972,0.9153,19.19,2.625,-4.444
16361,0.1415,-0.035,0.9764,20.627,-0.784,-14.304
16381,-0.0062,-0.0191,0.9123,1.063,-13.716,-25.495
16403,-0.0211,-0.121,0.6298,-11.237,-32.573,-17.987
16421,-0.1588,-0.1047,0.743,-24.613,-30.501,-18.458
16438,-0.1872,-0.1916,0.7634,-27.099,-36.287,-28.384
16455,-0.2649,-0.0891,0.6701,-44.215,-34.505,-18.661
16475,-0.2893,-0.1167,0.9157,-56.02,-44.194,-17.911
16495,-0.3546,-0.1478,0.9822,-59.962,-39.903,-13.322
16515,-0.3575,-0.1322,0.8678,-60.447,-44.283,-21.344
16537,-0.4069,-0.1931,0.9399,-57.623,-32.863,-10.528
16553,-0.3113,-0.1735,0.9425,-51.596,-31.47,-6.575
16573,-0.2964,-0.0857,0.9981,-49.754,-29.038,2.26
16596,-0.3317,-0.0185,1.1517,-40.09,-18.43,4.275
16614,-0.1467,0.0139,0.9021,-29.97,-8.781,9.34
16634,-0.1352,0.0014,1.1665,-17.579,-2.47,9.109
16652,-0.0497,0.0865,1.1493,-4.74,6.055,9.59
16671,0.0554,0.1493,1.102,15.465,3.142,21.361
16691,0.1115,0.1005,1.141,20.309,19.168,11.248
16713,0.2334,0.1436,1.383,31.454,25.462,27.022
16735,0.2297,0.133,1.0632,39.564,40.396,23.959
16755,0.3461,0.1433,1.1651,52.006,36.58,17.8
16778,0.3393,0.1558,1.3174,62.879,36.624,9.715
16798,0.3741,0.2225,0.995,53.69,41.987,14.756
16821,0.3649,0.1629,1.0316,65.38,27.983,8.053
16840,0.3858,0.1357,1.0403,53.371,30.43,-0.471
16861,0.3195,0.0417,1.03,47.426,14.126,0.007
16881,0.208,-0.0125,0.9362,42.061,12.619,2.868
16906,0.1154,0.0097,0.8033,22.64,3.061,-7.192
16927,0.0661,0.0175,0.9009,14.055,3.184,-12.544
16946,-0.0442,0.012,0.8198,-6.816,-13.236,-22.431
16968,-0.1448,-0.2267,0.872,-11.416,-25.917,-18.422
16987,-0.2684,-0.0024,0.8932,-26.796,-28.835,-11.299
17006,-0.3019,-0.1187,0.6529,-38.496,-26.373,-19.756
17028,-0.1844,-0.1034,0.9172,-47.256,-48.168,-21.505
17048,-0.3552,-0.2362,0.8095,-55.373,-35.939,-14.679
17068,-0.2496,-0.1539,0.947,-56.892,-37.783,-9.874
17088,-0.3294,-0.0865,0.9504,-60.953,-38.12,-6.256
17109,-0.3378,-0.1643,1.13,-58.944,-34.784,-7.523
17129,-0.3794,-0.2234,0.9898,-61.014,-20.206,-13.242
17146,-0.2655,-0.0364,0.9872,-38.726,-17.725,3.72
17167,-0.11,-0.0211,1.022,-40.899,-17.943,1.529
17186,-0.0615,0.0856,1.0076,-15.821,-4.266,4.977
17204,-0.0579,0.0355,1.2234,-13.49,9.977,6.322
17224,-0.0504,0.0702,1.0603,7.294,15.276,17.336
17244,0.0375,0.1367,1.2695,19.84,22.093,22.097
17263,0.1131,0.1747,1.1765,31.512,21.076,15.71
17284,0.289,0.1043,1.022,38.825,45.197,23.162
17302,0.3562,0.1951,1.3379,41.111,40.921,25.324
17321,0.3244,0.1238,0.8333,53.021,48.446,20.643
17340,0.3249,0.1457,1.1366,56.726,41.431,16.935
17360,0.4274,0.1661,1.1336,59.484,38.268,13.351
17381,0.2923,0.1545,0.8372,52.35,31.392,7.102
17399,0.3209,0.1058,1.0725,53.144,34.723,10.518
17420,0.2983,0.005,0.914,32.564,30.231,7.789
17441,0.1735,-0.0685,0.9098,35.629,19.57,-1.989
17458,0.1283,-0.0131,1.0341,28.07,18.243,-8.61
17475,0.062,0.0162,0.8828,12.83,-0.035,-7.431
17495,0.0906,-0.0419,0.803,2.04,-12.747,-18.052
17514,0.0405,-0.0797,0.7997,-8.648,-16.412,-10.077
17534,-0.1256,-0.1164,0.9811,-17.443,-21.272,-12.82
17554,-0.2141,-0.1189,0.8406,-29.135,-32.912,-17.26
17575,-0.2925,-0.196,0.7193,-43.48,-36.699,-22.081
17596,-0.3095,-0.111,0.7771,-53.226,-38.248,-19.974
17614,-0.3637,-0.1041,0.7304,-55.863,-37.525,-26.072
17633,-0.3541,-0.1539,0.8358,-50.867,-38.241,-18.688
17651,-0.3261,-0.0987,1.0767,-56.931,-35.187,-8.17
17671,-0.3474,-0.1833,0.9421,-54.783,-28.342,-11.795
17693,-0.296,-0.0574,0.8745,-43.746,-20.644,8.772
17713,-0.2434,-0.0412,1.0959,-39.889,-19.245,-1.136
17729,-0.1993,0.0552,1.0474,-35.713,-19.142,0.277
17746,-0.1452,0.0111,1.1757,-18.807,-7.566,10.215
17765,-0.0123,0.0956,1.1267,-7.789,8.5,14.101
17784,-0.0639,0.0614,1.32,3.126,10.824,22.118
17804,0.181,-0.0071,1.1015,20.253,23.8,16.512
17824,0.1815,0.1168,1.0833,20.894,29.035,14.946
17843,0.2659,0.1516,1.291,37.65,34.783,17.073
17865,0.3282,0.157,0.9826,45.651,40.851,25.553
17884,0.291,0.157,1.1443,52.077,45.854,26.38
17902,0.2995,0.1164,1.2144,58.407,39.558,13.13
17923,0.2975,0.11,0.8763,55.296,32.059,12.122
17941,0.3245,0.0508,1.0647,66.127,35.118,16.426
17961,0.3419,-0.019,0.8643,54.873,31.393,9.0
17982,0.2295,0.0436,0.7821,40.381,9.018,-2.305
18001,0.2329,-0.0197,0.8187,26.014,8.857,-9.574
18024,0.0039,0.0326,0.8617,18.044,2.42,-11.958
18043,0.0303,-0.1617,0.7781,6.843,-8.695,-8.115
18066,0.0171,-0.0724,0.9309,-10.246,-15.57,-23.486
18086,-0.1267,-0.0061,0.8133,-7.541,-27.147,-17.327
18104,-0.2238,-0.1391,0.7512,-39.524,-25.31,-21.469
18124,-0.2775,-0.1436,0.6731,-41.689,-34.909,-23.795
18142,-0.4416,-0.128,0.8387,-50.401,-47.293,-22.143
18161,-0.3758,-0.1237,1.0433,-57.004,-36.221,-14.007
18182,-0.2937,-0.1608,0.7991,-69.104,-35.519,-13.281
18202,-0.3779,-0.1754,0.8481,-59.995,-37.252,-7.619
18221,-0.3576,-0.0718,0.8405,-56.412,-42.203,-13.268
18243,-0.4151,-0.1701,1.1141,-47.63,-21.915,-12.925
18265,-0.3259,0.0012,1.1377,-39.474,-23.326,1.327
18287,-0.1156,-0.0232,1.047,-23.931,-10.692,5.247
18308,-0.068,0.0319,1.071,-27.188,-2.331,7.237
18330,-0.0781,0.0406,1.0697,-3.436,3.175,3.776
18347,0.0224,0.1629,1.154,21.76,17.594,20.493
18366,0.1249,0.127,1.2979,26.967,25.836,3.519
18385,0.1333,0.1165,1.2041,25.832,31.507,23.073
18405,0.1534,0.1275,1.323,43.92,34.791,23.176
18424,0.2913,0.1424,1.1077,46.059,35.077,22.235
18444,0.361,0.2674,0.9241,54.812,47.338,17.262
18467,0.379,0.0698,1.3783,69.894,39.771,3.244
18487,0.3889,0.172,1.1,63.956,31.037,3.181
18507,0.2456,0.1224,1.1132,47.819,32.967,3.05
18527,0.2878,0.1424,0.9115,45.023,26.07,12.112
18547,0.2187,0.0649,0.8095,39.796,19.572,3.133
18567,0.1631,0.0,0.9194,27.385,7.742,-6.988
18588,0.0799,0.0155,0.6662,17.071,-4.658,-13.474
18610,-0.0286,-0.0588,0.8064,-3.118,-18.187,-13.656
18632,-0.2328,-0.063,0.9133,-15.874,-23.088,-13.125
18652,-0.0981,-0.0517,0.846,-30.698,-35.909,-17.702
18673,-0.209,-0.1352,0.8272,-40.489,-32.154,-27.052
18692,-0.3516,-0.1694,0.9861,-44.028,-45.523,-12.765
18711,-0.2928,-0.1819,0.868,-52.774,-41.38,-16.467
18733,-0.3659,-0.1204,0.6713,-62.401,-36.123,-19.097
18754,-0.3706,-0.1722,0.8848,-54.277,-38.85,-11.655
18775,-0.3745,-0.1238,1.1357,-52.299,-33.694,-3.454
18796,-0.2768,-0.1269,0.959,-52.067,-25.064,-3.178
18817,-0.2942,-0.0208,1.2236,-44.873,-17.067,1.799
18838,-0.2453,-0.0489,1.1847,-23.845,-5.693,11.972
18859,-0.0595,-0.0401,1.0821,-11.863,1.296,5.651
18878,-0.0519,-0.0003,1.0457,-14.945,8.826,7.6
18899,0.0326,0.0579,1.2135,12.818,6.297,13.496
18914,0.1327,0.0819,1.3189,25.431,23.263,21.889
18935,0.141,0.1405,1.0419,33.174,37.58,24.172
18949,0.1966,0.1306,1.2109,35.386,36.453,20.725
18967,0.2858,0.1659,0.9862,44.646,41.884,15.638
18988,0.2381,0.1723,1.1365,62.583,36.18,27.687
19008,0.3523,0.1813,0.9772,62.682,39.539,10.963
19027,0.3122,0.0369,1.1658,62.734,41.139,11.769
19045,0.3862,0.0589,1.0045,70.529,37.418,7.372
19068,0.3417,0.1144,1.1389,48.86,33.084,11.519
19087,0.2951,0.0691,0.9262,46.583,16.947,1.131
19110,0.1289,0.0699,0.8666,36.824,9.407,5.057
19130,0.1358,-0.09,0.728,23.116,-1.891,-3.513
19151,0.0028,-0.0713,0.8925,1.374,-3.607,-16.321
19173,-0.0269,-0.096,0.8736,0.725,-15.462,-16.892
19193,-0.2185,-0.099,0.9014,-21.362,-23.487,-20.474
19212,-0.2487,-0.1254,0.8659,-33.278,-32.449,-12.418
19232,-0.1763,-0.1184,0.8429,-42.204,-38.691,-15.759
19252,-0.2693,-0.1549,0.8749,-50.477,-38.136,-27.555
19270,-0.3398,-0.0807,0.9044,-55.821,-34.255,-15.812
19289,-0.3893,-0.0582,0.9533,-54.133,-31.909,-16.675
19308,-0.4041,-0.1855,0.7439,-54.133,-30.017,-19.909
19330,-0.3267,-0.1048,0.8958,-59.018,-35.878,-13.623
19350,-0.3239,-0.0408,0.8241,-55.569,-33.707,-6.379
19369,-0.1864,-0.0226,1.0625,-45.848,-16.6,-12.131
19389,-0.2146,-0.0394,1.2359,-39.674,-6.477,4.548
19409,-0.1336,0.0276,1.2024,-23.555,-1.94,8.197
19430,-0.1263,-0.0296,1.0878,-14.489,5.334,10.619
19449,-0.0,0.0776,1.2242,13.726,10.639,15.226
19467,0.0972,0.0298,1.225,15.78,24.109,16.269
19489,0.1504,0.1519,1.2229,26.282,31.682,13.672
19508,0.2062,0.085,1.0675,43.038,35.474,16.77
19526,0.2953,0.1565,1.3193,41.662,32.064,15.886
19547,0.3966,0.1654,1.0485,51.447,34.786,21.654
19567,0.3513,0.1464,1.1005,61.098,39.265,11.005
19585,0.4071,0.0987,1.2008,60.666,43.193,10.898
19606,0.3696,0.0986,1.0245,63.283,38.516,9.974
19627,0.3624,0.1409,1.0233,39.183,26.048,-2.152
19647,0.2326,0.0303,0.9822,49.197,11.798,-1.264
19668,0.1911,0.018,0.9312,31.814,19.002,-3.599
19686,0.1293,-0.0414,0.9002,18.047,10.582,-6.838
19707,0.0873,0.0027,0.8741,1.663,-4.48,-10.058
19726,0.0247,-0.0736,0.8347,-5.341,-15.592,-18.795
19745,-0.0829,-0.1413,0.7202,-7.336,-22.702,-22.948
19767,-0.1259,-0.1264,0.6454,-24.258,-24.217,-21.702
19789,-0.2681,-0.1546,0.9032,-32.956,-32.116,-19.083
19812,-0.2531,-0.0801,0.9238,-51.549,-40.842,-20.914
19834,-0.2829,-0.1494,0.8799,-56.668,-28.991,-23.255
19853,-0.3147,-0.2068,0.9099,-67.644,-46.786,-4.171
19874,-0.3396,-0.0949,0.826,-67.261,-39.099,-15.71
19895,-0.2889,-0.0059,0.7189,-56.379,-33.917,-14.244
19915,-0.3317,-0.0069,0.9829,-56.078,-24.036,-6.737
19935,-0.2248,-0.0901,0.8626,-44.527,-11.199,5.613
19957,-0.1486,-0.0114,1.1167,-27.826,-3.266,9.019
19977,-0.1565,0.0341,1.2653,-9.07,2.228,19.202
19995,0.0039,0.0634,1.1003,-3.342,3.007,8.478
20015,-0.0033,0.1122,1.1283,3.328,22.879,14.982
20036,0.1172,0.101,1.0967,14.651,20.311,23.757
20056,0.2091,0.0901,1.204,36.11,30.136,14.564
20076,0.2286,0.1943,1.1884,42.307,36.287,25.719
20097,0.3156,0.0938,1.071,53.973,35.36,19.118
20117,0.3427,0.1051,1.2373,57.15,35.81,13.032
20138,0.309,0.0759,1.38,59.645,42.764,5.498
20158,0.3703,0.1438,1.1884,64.612,42.06,13.144
20177,0.2798,0.0949,1.0168,59.78,29.41,14.047
20199,0.3866,0.1013,0.966,48.505,13.391,3.517
20218,0.2135,-0.013,0.885,33.068,16.093,-0.489
20236,0.1007,-0.0668,0.8459,24.55,3.385,-5.116
20254,0.0438,-0.0565,0.9623,19.758,0.56,-5.518
20272,0.0802,-0.0723,0.9393,10.425,-7.823,-7.274
20293,-0.0804,-0.0829,0.6987,-16.647,-27.6,-30.945
20312,-0.2003,-0.2004,0.84,-15.01,-27.322,-20.145
20332,-0.1587,-0.1106,0.9113,-38.43,-28.578,-22.844
20353,-0.2839,-0.1911,0.7728,-41.762,-36.989,-18.992
20373,-0.2755,-0.1824,0.8039,-38.825,-44.733,-21.052
20394,-0.2918,-0.0869,0.9224,-65.988,-36.68,-14.89
20414,-0.3361,-0.2429,0.9594,-57.447,-46.88,-12.691
20435,-0.2227,-0.0979,0.9718,-60.285,-33.791,-20.262
20452,-0.4087,-0.0774,0.9914,-53.037,-33.299,-18.137
20471,-0.3269,-0.107,1.0476,-52.119,-22.237,0.668
20488,-0.2549,-0.0615,1.019,-53.908,-19.043,-3.436
20508,-0.0662,0.0554,0.9774,-34.506,-6.993,13.777
20528,-0.0174,0.1262,0.9714,-16.663,6.34,13.645
20550,0.0425,0.1167,1.2207,2.979,12.869,4.506
20571,0.0211,0.188,1.1953,12.455,21.662,12.564
20592,0.1063,0.0841,1.243,31.4,29.054,19.926
20611,0.1639,0.0565,1.1168,32.739,23.411,17.563
20632,0.2271,0.1442,1.2017,42.775,37.147,19.046
20651,0.3832,0.1902,1.1825,54.617,40.619,13.515
20671,0.3256,0.0531,1.2763,56.028,42.74,18.934
20692,0.3443,0.0873,1.1978,65.59,38.103,14.423
20712,0.3818,0.0741,0.9987,51.793,38.709,14.609
20733,0.2341,0.1068,1.0773,58.699,24.851,6.329
20754,0.2762,0.0694,0.9048,52.937,32.458,-1.202
20772,0.1689,-0.0099,0.6784,40.187,18.134,-1.438
20794,0.1359,0.0007,1.0672,30.383,1.172,-5.14
20815,0.0427,-0.1005,0.8201,9.106,3.076,-11.162
20835,-0.0385,-0.0957,0.9336,-5.288,-18.119,-8.466
20854,-0.0698,-0.1637,0.7451,-12.136,-20.303,-22.613
20873,-0.1407,-0.1294,0.7208,-29.634,-26.648,-14.428
20892,-0.2265,-0.1778,0.7462,-35.45,-34.897,-25.982
20913,-0.2558,-0.1133,0.8361,-45.529,-37.907,-16.566
20931,-0.3561,-0.1512,0.8454,-53.934,-39.132,-29.171
20952,-0.3068,-0.1559,0.9064,-57.026,-45.265,-18.319
20970,-0.3602,-0.045,0.8381,-56.808,-37.132,-9.522
20990,-0.3671,-0.0955,0.9318,-59.291,-35.068,-12.861
21010,-0.3583,-0.1084,0.8871,-56.991,-20.16,-7.257
21034,-0.2801,-0.0837,1.1724,-41.828,-14.237,-0.125
21051,-0.1265,-0.0859,0.9315,-36.354,-18.497,-9.289
21074,-0.1458,0.0087,1.0275,-22.195,-5.482,8.834
21094,-0.1245,0.0606,1.102,-8.626,0.783,6.545
21115,0.0613,-0.0181,1.4118,3.381,12.214,19.559
21135,0.0698,0.0362,1.2677,14.293,25.889,16.924
21155,0.1809,0.1001,1.1141,25.49,28.08,20.468
21175,0.2012,0.0861,1.2799,39.236,31.643,13.869
21197,0.353,0.1514,1.2357,51.949,41.247,23.412
21217,0.2964,0.1579,1.1894,58.512,30.21,17.858
21238,0.4167,0.134,1.1994,60.168,37.53,7.987
21257,0.2964,0.153,1.1002,61.573,44.009,9.966
21277,0.3192,0.0747,1.0695,51.701,39.98,12.079
21296,0.3737,0.0762,0.8548,49.74,33.808,5.373
21316,0.2653,-0.0024,1.1094,47.401,13.87,3.775
21339,0.3007,0.0239,0.8708,27.919,4.253,-6.754
21358,0.1063,-0.0187,0.7551,21.243,-0.496,-2.925
21378,0.0558,-0.1151,0.7958,7.628,-6.974,-5.749
21396,0.0671,-0.09,0.7772,-5.39,-18.518,-24.461
21416,-0.1813,-0.1102,0.7268,-14.716,-31.207,-15.21
21434,-0.2528,-0.113,0.8781,-28.165,-24.338,-12.029
21452,-0.2689,-0.1246,0.8995,-45.269,-30.147,-17.847
21473,-0.2443,-0.185,0.6184,-46.269,-40.929,-20.154
21495,-0.4067,-0.1106,0.7868,-58.46,-36.34,-25.083
21519,-0.3184,-0.112,0.8315,-66.524,-34.48,-17.111
21538,-0.3213,-0.1587,0.8949,-55.888,-48.494,-15.005
21560,-0.2263,-0.1545,1.1296,-61.989,-28.274,-3.773
21580,-0.2384,-0.1017,0.9226,-51.609,-25.462,1.126
21600,-0.2214,-0.1113,1.2049,-39.605,-30.108,-0.182
21621,-0.1049,0.0079,1.0784,-29.996,-3.501,0.576
21641,-0.0732,0.0904,1.2875,-20.295,0.786,-1.152
21661,-0.0454,0.1344,1.1299,-8.811,1.368,16.098
21681,-0.0007,0.0377,1.1407,5.883,19.821,18.656
21698,0.093,0.1525,1.1931,15.433,25.251,7.579
21716,0.1833,0.1349,1.3292,31.134,32.964,21.88
21737,0.2587,0.0246,1.2108,40.124,25.895,24.085
21757,0.1918,0.1332,1.2009,44.284,37.262,5.344
21776,0.3197,0.1258,1.221,55.233,35.073,12.559
21796,0.3494,0.1992,1.0376,56.434,38.451,27.571
21817,0.3744,0.0777,1.1191,60.839,27.877,12.079
21837,0.4094,0.1265,0.9799,58.056,26.121,19.298
21856,0.3039,0.0666,1.1472,57.207,33.475,4.944
21878,0.1935,-0.035,0.9927,44.202,23.259,4.404
21901,0.0742,-0.0289,0.9719,22.867,12.465,-7.731
21921,0.1261,0.0417,0.662,4.858,5.96,-13.652
21943,-0.0377,-0.0784,0.9042,-6.614,-20.543,-22.217
21965,-0.0373,-0.055,0.7936,-16.336,-20.59,-14.572
21986,-0.0886,-0.0812,0.6573,-35.212,-26.625,-23.446
22007,-0.3047,-0.1626,0.8114,-42.076,-35.757,-24.845
22028,-0.256,-0.213,0.662,-48.468,-47.2,-27.579
22049,-0.2593,-0.2067,0.8974,-58.349,-35.426,-18.23
22067,-0.2931,-0.07,1.0063,-57.585,-36.645,-12.584
22088,-0.4543,-0.1201,0.7219,-62.959,-40.64,-14.402
22106,-0.3812,-0.1958,0.9351,-61.849,-29.739,-11.52
22125,-0.3759,-0.0429,0.9636,-44.92,-28.06,1.704
22147,-0.2369,-0.1409,0.8308,-45.271,-17.764,-9.123
22168,-0.1808,-0.0583,1.1671,-33.971,-16.898,12.729
22190,-0.2596,0.0243,1.1813,-17.163,-1.382,1.661
22210,-0.0633,0.1791,1.3544,-3.882,7.689,11.67
22228,0.0629,0.1212,1.2246,2.088,13.133,17.052
22248,0.108,0.0826,1.1044,22.475,8.936,22.63
22268,0.1805,0.1291,1.2512,27.45,30.043,11.354
22288,0.2188,0.188,1.3255,45.712,35.775,20.809
22310,0.2402,0.2206,1.136,44.083,33.736,16.425
22329,0.3263,0.1362,1.246,54.553,42.782,23.085
22350,0.3498,0.1287,0.8928,60.64,40.617,12.476
22368,0.3797,0.0841,1.2421,61.622,39.225,3.077
22389,0.3676,0.1361,1.1306,52.822,30.774,10.618
22409,0.3042,0.127,0.7514,43.169,18.107,4.381
22428,0.3093,-0.0506,1.0013,45.936,11.244,9.156
22448,0.1754,-0.0066,0.7213,32.254,14.803,0.598
22467,0.0554,-0.0796,0.8216,19.923,-2.543,-12.677
22487,0.0751,-0.0443,0.9172,17.062,-10.085,-7.292
22510,-0.0332,-0.1482,0.807,-8.236,-11.86,-15.347
22530,-0.0916,-0.1776,0.931,-22.554,-34.547,-14.605
22549,-0.2474,-0.0742,0.8064,-40.575,-38.194,-23.326
22566,-0.1481,-0.1505,0.7993,-46.156,-30.68,-21.892
22585,-0.2515,-0.1521,0.9249,-44.818,-37.678,-16.389
22604,-0.3375,-0.1276,0.8018,-59.017,-49.789,-14.73
22623,-0.3911,-0.0938,0.8611,-55.891,-41.909,-26.811
22645,-0.2953,-0.1473,0.9145,-66.319,-36.426,-10.017
22665,-0.3899,-0.1248,0.9388,-61.749,-38.629,-13.38
22687,-0.1864,-0.095,1.1107,-55.808,-33.805,-3.322
22707,-0.2819,0.0097,0.973,-40.678,-27.637,-8.281
22727,-0.1041,-0.0145,0.9996,-33.654,-6.602,8.892
22747,-0.1286,0.0081,1.0152,-26.019,3.294,12.112
22767,0.0365,0.0749,0.9397,-3.723,10.86,8.42
22790,0.0115,0.1809,1.33,10.739,23.135,18.139
22806,0.1108,0.1133,1.1036,20.53,29.617,17.811
22823,0.2115,0.1137,1.1758,30.843,21.431,22.355
22842,0.2656,0.2383,1.3534,35.578,39.223,13.061
22862,0.3402,0.2154,1.1714,55.186,38.552,13.608
22883,0.3006,0.2082,1.2143,55.198,49.367,14.609
22904,0.3507,0.1155,0.9889,60.725,56.439,15.583
22923,0.4115,0.0962,1.2356,61.761,36.291,21.03
22945,0.2969,0.0106,1.0374,52.221,31.02,9.567
22967,0.3234,0.1204,0.8985,60.02,23.897,8.73
22987,0.234,0.0446,0.8535,41.862,18.665,-4.875
23008,0.1896,-0.0844,1.0798,30.904,10.584,-8.045
23029,0.1078,0.0303,0.8126,15.688,13.204,-12.962
23048,-0.0095,-0.0773,0.7419,10.871,-7.8,-14.097
23069,-0.066,-0.1017,0.774,-3.127,-19.621,-12.959
23089,-0.122,-0.1911,0.8082,-21.366,-25.032,-20.157
23109,-0.204,-0.1094,0.8153,-41.427,-35.568,-21.238
23131,-0.1851,-0.1214,0.8524,-46.028,-44.954,-17.028
23148,-0.2523,-0.1524,0.8456,-52.236,-39.729,-21.783
23165,-0.3163,-0.1688,0.9076,-58.962,-28.311,-21.73
23184,-0.3857,-0.0079,0.8456,-64.499,-34.898,-17.205
23203,-0.3896,-0.1842,1.1159,-67.491,-39.291,-3.358
23223,-0.2332,-0.1381,0.9021,-49.542,-30.732,-4.257
23240,-0.3551,-0.0437,1.1241,-48.503,-14.857,4.433
23259,-0.2551,-0.1008,0.9718,-44.534,-19.595,-7.326
23278,-0.187,-0.0732,0.9303,-38.394,-17.254,5.417
23301,-0.1407,0.0767,0.9518,-19.655,-2.283,6.554
23324,-0.087,0.0879,1.1864,-5.301,10.938,11.236
23343,-0.0011,0.1101,1.2953,4.541,18.003,8.078
23363,0.0879,0.1203,1.0794,21.704,31.008,24.636
23381,0.1442,0.0947,1.1122,33.364,30.261,11.354
23398,0.3001,0.1288,1.236,43.51,22.605,24.432
23418,0.2858,0.1451,1.185,44.627,40.413,17.682
23437,0.2964,0.1915,1.1063,57.458,41.826,13.853
23457,0.3502,0.1633,1.0074,65.001,41.367,11.409
23474,0.3833,0.0838,1.1356,61.47,33.725,13.893
23493,0.3231,0.1508,1.1312,69.392,44.377,8.379
23513,0.3585,0.002,1.0711,52.83,23.523,6.116
23534,0.2044,0.0385,0.9771,37.353,16.75,-8.488
23554,0.2692,-0.0353,0.8251,31.871,12.418,-13.394
23572,0.1494,-0.0515,0.9256,22.337,12.306,-16.105
23594,0.0649,0.0511,0.8796,14.332,2.598,-7.388
23613,-0.0421,-0.1482,0.6981,2.877,-9.433,-7.4
23633,-0.1472,-0.1429,0.7801,-14.022,-16.357,-18.642
23653,-0.243,-0.0985,0.8376,-25.911,-34.465,-15.404
23671,-0.2575,-0.162,0.7933,-28.027,-41.659,-18.179
23691,-0.2455,-0.1401,0.6149,-51.286,-39.192,-13.98
23711,-0.3646,-0.0783,0.7664,-54.622,-35.174,-12.699
23732,-0.4202,-0.1107,0.7895,-61.023,-35.256,-22.728
23752,-0.3954,-0.1534,0.9517,-65.854,-42.282,-12.643
23774,-0.3564,-0.1142,1.2009,-67.928,-38.531,-5.294
23796,-0.321,-0.0519,1.0033,-45.579,-21.438,-0.655
23816,-0.2634,-0.0161,0.9152,-47.868,-19.075,3.347
23837,-0.1422,-0.012,1.0642,-34.476,-21.676,4.067
23860,-0.0499,0.0439,1.1258,-17.104,-6.69,12.498
23883,0.077,0.0811,1.2364,-9.943,11.677,6.285
23901,-0.0335,0.0846,1.3057,4.021,10.996,9.258
23919,0.0741,0.0815,1.3338,19.932,18.984,25.72
23942,0.2327,0.1709,1.2536,31.72,26.61,25.153
23960,0.2294,0.1593,1.1945,36.839,40.1,27.902
23978,0.339,0.0457,1.3295,53.776,38.577,18.672
23997,0.3394,0.107,1.1242,54.08,48.336,13.104
24018,0.4268,0.1147,1.1314,60.317,37.14,14.498
24038,0.3998,0.1124,1.0636,59.884,35.54,21.876
24057,0.3841,0.1614,0.8345,61.601,33.982,4.332
24076,0.2786,0.2354,1.1323,53.061,23.415,3.603
24095,0.2488,-0.0771,1.0299,39.166,11.553,6.299
24113,0.1844,0.0312,0.6864,40.033,10.324,-3.435
24137,0.0399,-0.0211,0.9768,17.389,-2.323,-10.898
24157,0.1118,-0.0661,0.8142,2.477,-8.215,-8.963
24179,-0.0114,-0.0624,0.9172,-13.152,-20.01,-18.53
24198,-0.1387,-0.1056,0.8122,-32.538,-22.093,-15.904
24218,-0.1267,-0.1504,0.6643,-35.952,-32.604,-31.71
24236,-0.2787,-0.1424,0.8072,-40.39,-43.436,-28.755
24252,-0.3796,-0.1213,0.7255,-56.136,-41.259,-20.792
24270,-0.2717,-0.1262,0.7124,-46.671,-45.803,-11.767
24288,-0.4071,-0.1338,0.9476,-70.025,-30.186,-17.31
24304,-0.3597,-0.1621,0.9282,-63.907,-38.185,-14.445
24323,-0.3329,0.026,1.0768,-66.274,-31.819,-9.603
24345,-0.2965,-0.0698,0.9357,-49.538,-29.853,-8.439
24364,-0.2339,-0.0216,0.9217,-44.101,-13.739,-10.237
24386,-0.1858,-0.0494,1.1304,-38.164,-20.433,6.215
24407,-0.1163,0.0209,1.0257,-31.765,-8.885,8.683
24428,-0.1043,0.0554,1.1144,-17.087,10.115,13.237
24447,0.0248,-0.0199,1.2239,2.984,10.332,9.172
24468,0.0169,0.0682,1.1782,12.415,17.723,25.142
24489,0.2471,0.0898,1.1507,26.161,25.996,17.144
24508,0.1603,0.1108,1.0575,39.14,43.718,27.125
24529,0.2687,0.0955,1.279,46.961,48.261,9.109
24550,0.2595,0.1511,1.1256,47.038,41.93,16.105
24569,0.3089,0.2114,1.1956,52.559,40.604,23.682
24587,0.3504,0.1351,1.1496,53.415,41.608,12.616
24605,0.3131,0.0512,1.1731,54.57,36.167,-2.24
24625,0.3691,0.0331,0.9963,53.911,29.561,1.102
24646,0.2771,0.0343,0.9377,45.795,19.064,2.642
24665,0.1879,-0.0488,0.8201,42.109,10.531,4.133
24685,0.1363,0.0034,0.8363,17.484,7.308,-8.839
24706,0.1248,0.021,0.8884,12.479,-3.955,-6.087
24727,0.0265,-0.1077,0.7444,-7.174,-6.525,-13.104
24749,-0.1613,-0.1041,0.8387,-8.017,-23.975,-19.909
24771,-0.2175,-0.1517,0.9468,-31.976,-34.721,-15.587
24789,-0.2162,-0.1741,0.7589,-43.936,-42.106,-15.195
24812,-0.2797,-0.1403,0.688,-49.609,-42.543,-20.842
24831,-0.3824,-0.1813,0.8006,-55.569,-47.157,-21.523
24853,-0.3111,-0.1781,0.7347,-61.647,-33.398,-23.275
24873,-0.3914,-0.2018,1.0489,-56.489,-38.41,-9.796
24892,-0.2637,-0.0958,0.9646,-48.824,-35.698,-11.063
24909,-0.2734,-0.0224,0.9213,-46.822,-24.252,-1.932
24929,-0.3084,-0.0094,0.9832,-43.911,-9.537,1.404
24947,-0.2239,0.0597,0.9598,-24.966,-13.933,5.746
24968,-0.1512,-0.0131,1.2202,-18.833,-8.145,7.663
24990,-0.0315,0.0991,1.3387,-12.26,5.455,6.305
25009,0.0254,0.0298,1.029,6.371,6.349,18.053
25030,0.0592,0.1471,1.299,18.885,26.438,22.357
25049,0.1145,0.2126,1.1754,28.868,33.046,31.158
25068,0.2709,0.1681,1.3228,43.3,32.873,17.03
25089,0.3101,0.2328,0.9979,41.305,33.01,14.21
25109,0.3355,0.1181,1.1803,64.62,51.973,12.066
25131,0.3621,0.1308,1.0818,62.821,32.968,14.907
25151,0.3158,0.0748,1.15,50.231,32.491,15.858
25172,0.3349,0.0979,1.0451,58.842,31.412,12.175
25192,0.4157,0.0814,0.9963,51.714,29.147,11.23
25214,0.2899,0.0342,0.9344,46.949,15.605,0.355
25233,0.1553,-0.0227,1.0615,37.723,8.375,-11.785
25253,0.0706,-0.0572,0.8507,26.057,2.269,-8.735
25273,-0.1241,-0.0474,0.9242,1.852,6.289,-24.069
25291,0.0013,-0.0987,0.8803,-6.235,-20.278,-17.995
25312,-0.0928,-0.1739,0.8922,-25.049,-27.92,-20.668
25333,-0.2318,-0.2302,0.6988,-30.192,-32.472,-17.486
25354,-0.3373,-0.1765,0.8791,-56.358,-33.31,-17.718
25377,-0.3731,-0.2189,0.8633,-60.44,-26.933,-22.475
25399,-0.3208,-0.1851,0.7417,-60.976,-40.353,-20.053
25418,-0.3544,-0.1517,0.8732,-60.294,-35.257,-13.394
25439,-0.3043,-0.1168,1.1669,-57.279,-44.842,-7.524
25458,-0.3081,-0.1184,0.9402,-47.191,-28.464,-2.296
25478,-0.2208,0.0543,0.9877,-49.385,-21.895,-3.97
25497,-0.1967,-0.0873,1.1113,-43.354,-9.079,2.501
25519,-0.0992,0.0734,1.0566,-26.043,-7.114,2.331
25540,-0.1657,0.0396,1.1608,-13.532,-1.162,6.544
25560,-0.0441,0.0456,1.1286,5.781,14.874,5.364
25581,0.0811,0.1357,1.2323,24.654,14.385,14.549
25598,0.2156,0.1019,1.193,34.884,24.114,25.555
25615,0.312,0.0979,1.3942,42.814,33.322,26.988
25636,0.2681,0.2376,1.1932,44.515,25.438,22.644
25656,0.2869,0.04,1.1466,53.609,38.359,23.709
25677,0.2455,0.1309,1.2419,60.959,47.692,20.526
25695,0.3932,0.1407,0.9679,56.146,30.084,14.711
25715,0.3131,0.1819,1.2356,54.999,31.045,-1.926
25738,0.4563,0.0621,0.9168,54.739,31.022,16.82
25759,0.2238,0.1832,1.0875,37.884,24.666,-0.223
25779,0.3071,0.0551,1.0705,40.056,12.663,-4.75
25799,0.1699,-0.1351,0.8326,20.709,2.596,-0.7
25818,0.009,-0.1208,0.8099,13.056,3.217,-10.929
25835,0.005,-0.0625,0.8188,-0.097,-11.475,-2.017
25855,-0.0463,-0.1589,0.8727,-8.285,-26.027,-21.454
25876,-0.1737,-0.0974,0.701,-38.483,-27.603,-13.993
25894,-0.1798,-0.1617,0.7904,-31.71,-34.03,-21.155
25913,-0.2336,-0.2076,0.7795,-40.847,-39.489,-19.329
25931,-0.2828,-0.1981,0.7127,-52.19,-47.855,-23.3
25950,-0.3398,-0.1028,0.749,-55.508,-39.988,-20.213
25970,-0.4086,-0.2346,0.9006,-56.999,-35.586,-7.838
25987,-0.349,-0.0656,0.9325,-63.669,-31.962,-8.764
26008,-0.3129,-0.039,0.8905,-54.884,-30.418,-5.044
26029,-0.3741,-0.0789,1.0222,-43.599,-23.345,-10.728
26048,-0.2207,-0.102,0.9918,-48.219,-18.882,-6.299
26065,-0.1792,0.0246,1.2228,-27.536,-3.948,0.885
26083,-0.1742,0.0028,1.1158,-18.321,-6.663,7.292
26105,-0.0408,-0.0131,1.2702,-1.007,6.548,12.837
26121,0.0235,0.1816,1.01,0.337,11.983,17.394
26140,0.2088,0.0661,1.2263,15.538,22.901,23.172
26159,0.1914,0.0559,1.2595,23.95,36.393,26.828
26180,0.2977,0.1579,1.1819,35.125,29.323,20.971
26199,0.2875,0.1462,1.1285,54.447,39.874,15.274
26219,0.235,0.2226,1.1439,53.406,41.456,21.662
26240,0.3814,0.1199,1.2006,56.305,34.483,16.386
26263,0.3133,0.1012,0.9612,64.806,35.107,14.016
26283,0.3091,0.1131,1.1093,54.152,26.789,13.774
26303,0.2363,0.0781,1.0261,54.359,25.386,1.473
26321,0.2467,0.0512,0.9279,36.427,17.446,6.637
26343,0.2269,0.0164,0.8857,28.029,16.214,-12.67
26362,0.1514,-0.021,0.878,13.438,-3.662,-5.874
26381,0.1105,-0.0807,1.0079,8.086,-9.229,-16.302
26401,0.0386,-0.0476,0.8533,-9.227,-18.796,-14.992
26419,-0.2192,-0.1297,0.711,-16.385,-17.122,-16.533
26439,-0.2476,-0.0911,0.7565,-31.449,-32.951,-21.339
26460,-0.3425,-0.0753,0.691,-52.948,-40.181,-23.195
26481,-0.2706,-0.1838,0.6328,-53.118,-42.835,-23.518
26498,-0.365,-0.0278,0.7262,-64.307,-43.935,-16.458
26518,-0.3723,-0.1744,0.886,-57.901,-42.191,-12.261
26539,-0.358,-0.1567,1.0415,-56.741,-40.689,-2.903
26556,-0.3132,-0.0754,1.0498,-53.675,-32.497,-10.008
26575,-0.3755,-0.0546,0.8771,-52.259,-33.368,-12.367
26596,-0.3138,-0.0406,0.9601,-51.169,-16.267,2.378
26617,-0.1864,0.0317,0.991,-30.91,-10.144,-3.976
26637,-0.0553,0.0372,0.8652,-17.72,6.688,16.968
26660,-0.0276,0.1651,1.1429,-5.432,11.243,17.047
26681,0.0169,0.0896,1.2639,10.111,19.663,11.366
26702,0.0288,0.0747,1.1718,13.904,35.805,10.713
26726,0.2653,0.1106,1.0722,37.639,35.191,15.591
26745,0.2343,0.171,1.1056,45.928,36.0,22.523
26764,0.2547,0.1742,1.1397,47.431,35.077,15.075
26785,0.2548,0.155,1.2209,61.027,47.173,20.582
26806,0.278,0.0888,1.0889,57.528,33.112,18.552
26825,0.2935,0.1682,1.1322,59.701,29.017,7.611
26843,0.3071,0.1873,1.0212,57.14,24.305,11.225
26867,0.2084,0.0565,0.9989,47.73,18.021,7.556
26887,0.221,0.1129,0.8373,29.592,13.921,-0.166
26906,0.1351,0.0335,0.8243,23.353,4.065,-4.416
26927,0.1797,0.0662,0.7306,22.408,-1.474,-14.149
26947,-0.0953,-0.0521,0.8888,5.244,-18.37,-4.59
26967,-0.0802,-0.096,0.7808,-10.968,-25.44,-22.308
26988,-0.1568,-0.0835,0.4408,-27.004,-27.72,-21.444
27006,-0.276,-0.1613,0.8497,-43.418,-38.397,-15.252
27026,-0.2742,-0.128,0.9096,-48.634,-44.407,-21.651
27049,-0.2855,-0.0825,0.7551,-57.645,-47.493,-19.829
27070,-0.3412,-0.1,0.9159,-59.743,-39.798,-22.737
27089,-0.2801,-0.1283,0.882,-67.109,-37.722,-15.333
27109,-0.4442,-0.0955,0.7328,-52.717,-33.811,2.828
27128,-0.3484,-0.0425,1.1822,-65.938,-21.635,-7.049
27148,-0.1867,-0.0137,1.0116,-40.37,-19.035,5.607
27167,-0.1591,0.0189,1.0935,-30.703,-12.754,0.995
27188,-0.1051,0.0339,1.0526,-11.013,3.263,2.698
27206,-0.0022,0.0055,1.1162,-12.195,9.526,7.667
27227,-0.0769,0.0457,1.1901,0.641,10.218,18.705
27246,0.1328,0.1274,1.0867,16.543,25.722,6.621
27267,0.223,0.1683,1.369,31.902,37.737,27.828
27285,0.1952,0.1754,1.2819,38.659,42.757,22.349
27307,0.4179,0.1153,1.2368,43.195,42.953,17.778
27329,0.337,0.141,1.1466,58.879,41.86,14.154
27351,0.2381,0.0803,1.0504,59.605,40.764,12.872
27368,0.368,0.0561,1.1976,54.777,44.463,18.528
27390,0.2955,0.1057,1.1094,48.702,25.71,0.703
27410,0.3561,0.1422,0.9636,63.404,32.65,4.047
27428,0.2819,0.0514,0.8546,47.795,20.329,5.931
27448,0.1643,0.1086,0.7623,36.084,6.752,-14.336
27468,0.199,-0.0289,0.8837,20.669,-3.435,-11.626
27489,0.0904,-0.0535,0.8215,10.895,-15.516,-20.075
27509,-0.077,-0.1345,0.9402,-11.358,-12.82,-22.133
27530,-0.1241,-0.129,0.9046,-18.972,-14.253,-17.084
27552,-0.1683,-0.1924,0.8039,-32.072,-33.531,-16.421
27574,-0.2781,-0.2232,0.7989,-49.693,-40.564,-22.006
27590,-0.3146,-0.2084,0.7044,-51.582,-32.685,-26.889
27609,-0.3284,-0.1438,0.9483,-58.668,-39.404,-22.232
27629,-0.4011,-0.1757,0.8682,-63.445,-33.022,-13.464
27646,-0.4605,-0.1504,0.9663,-62.5,-42.02,-12.915
27666,-0.3217,-0.0833,1.0655,-65.736,-29.6,-14.855
27688,-0.3968,-0.1514,0.9404,-45.666,-17.16,-6.714
27707,-0.3008,-0.0403,0.9568,-35.25,-24.443,3.89
27727,-0.2787,0.0313,1.3295,-37.226,-12.438,5.48
27746,-0.2055,0.0677,1.179,-15.553,-4.182,3.303
27765,-0.0291,0.078,1.1231,-8.801,9.942,13.468
27787,0.0253,0.0826,1.3026,6.196,22.038,12.91
27806,0.0969,0.0784,1.1629,12.351,19.806,14.765
27827,0.1191,0.1265,1.2325,28.914,42.717,20.203
27844,0.2055,0.225,1.14,43.517,34.959,14.505
27867,0.315,0.1634,1.1794,45.904,35.8,17.233
27888,0.3292,0.1423,1.1286,53.166,47.127,23.014
27907,0.389,0.1669,1.0506,57.101,39.975,27.764
27928,0.3954,0.1239,1.1099,42.471,34.508,3.419
27946,0.3183,0.1123,0.9835,58.37,29.568,4.112
27968,0.2,0.0583,1.0556,53.354,35.98,9.433
27988,0.2043,0.0184,0.9228,43.333,12.933,-6.997
28007,0.1778,0.0572,0.7408,36.032,15.492,-5.604
28026,0.076,-0.1223,0.9386,17.464,-2.688,0.004
28046,-0.015,-0.0334,0.9081,15.528,-10.744,-16.4
28067,-0.0417,-0.1121,1.0445,-11.968,-17.064,-17.282
28087,-0.0003,-0.2085,0.8064,-22.013,-22.059,-24.739
28108,-0.22,-0.1819,0.8184,-35.154,-39.385,-16.254
28128,-0.2559,-0.1471,0.854,-42.91,-38.714,-28.921
28149,-0.3704,-0.1449,0.9251,-53.446,-33.942,-22.644
28168,-0.2723,-0.11,0.9429,-57.851,-34.877,-24.031
28191,-0.306,-0.0939,0.9173,-63.347,-40.096,-16.089
28209,-0.305,-0.1954,0.9177,-61.381,-41.636,-2.117
28231,-0.2525,-0.0728,1.0529,-66.116,-29.167,-5.066
28253,-0.2974,-0.0232,1.0108,-43.305,-18.699,-0.973
28272,-0.2389,-0.0179,0.9314,-43.471,-14.435,3.601
28295,-0.0615,0.0351,0.9572,-27.658,1.701,7.051
28317,-0.0327,-0.0501,1.1163,-16.319,3.252,17.963
28338,-0.0925,0.0292,1.1858,6.014,7.23,18.931
28358,0.1191,0.1737,1.4387,13.805,18.913,11.124
28378,0.1403,0.1127,1.1876,16.821,28.846,24.173
28397,0.2757,0.252,1.2024,40.969,30.568,21.151
28418,0.3066,0.0851,1.1448,45.331,35.456,21.927
28440,0.24,0.2268,1.2228,55.943,44.726,8.087
28460,0.3601,0.1098,1.1583,63.589,35.416,15.782
28479,0.3595,0.1689,1.031,54.886,30.53,12.1
28500,0.351,0.0882,0.9496,56.809,36.74,5.354
28522,0.3248,0.0787,0.9613,46.882,29.234,9.492
28543,0.3185,0.0698,0.8701,46.715,12.941,-8.772
28564,0.1985,-0.0257,0.8868,30.872,12.766,9.855
28583,0.1106,0.0129,0.8881,18.641,-4.936,-14.861
28602,0.0934,-0.0713,0.7936,-0.033,-11.445,-10.487
28621,0.0731,-0.0773,0.9661,-2.945,-21.534,-14.741
28638,-0.0591,-0.2403,0.923,-13.581,-25.013,-12.02
28659,-0.1701,-0.1463,0.7771,-34.762,-27.008,-11.121
28678,-0.2186,-0.0795,0.707,-40.413,-33.476,-22.174
28698,-0.2784,-0.1147,0.8137,-46.98,-42.42,-18.674
28713,-0.3189,-0.1052,0.8195,-43.733,-38.772,-20.698
28732,-0.2345,-0.1408,0.8539,-56.805,-37.904,-21.381
28753,-0.3873,-0.0453,0.8579,-59.968,-33.013,-13.269
28772,-0.2815,-0.0955,0.8318,-58.931,-32.329,-10.108
28793,-0.3157,-0.1158,0.9866,-53.525,-24.57,-5.557
28811,-0.344,-0.013,0.9887,-42.442,-21.627,-3.508
28833,-0.2162,0.0264,1.0457,-39.86,-17.115,5.044
28853,-0.1655,0.0456,1.1213,-19.027,-3.419,11.589
28873,-0.0337,0.0271,1.1393,-18.43,10.878,5.596
28897,0.0366,0.0977,1.1847,8.828,21.611,18.648
28919,0.0658,0.1814,1.155,24.764,10.998,25.985
28938,0.2581,0.1544,1.236,35.67,33.339,13.159
28957,0.2982,0.0694,1.1243,43.134,32.623,20.774
28977,0.3732,0.1181,1.0734,52.349,40.508,21.765
28998,0.3422,0.1142,1.0686,54.628,33.143,21.809
29018,0.3461,0.1011,1.0583,54.009,37.134,19.915
29037,0.3833,0.0179,0.9612,60.923,28.754,18.387
29059,0.2995,0.1932,0.8739,56.643,29.605,8.793
29079,0.2994,0.027,1.0486,54.829,28.545,-1.18
29102,0.225,-0.0058,1.0743,39.367,18.95,-3.162
29123,0.0929,-0.098,0.9588,29.236,18.435,1.189
29145,0.0913,0.0055,0.8146,15.993,-4.772,-14.936
29166,-0.0194,-0.0755,0.6609,3.314,-15.924,-11.647
29187,-0.0919,-0.1176,0.8307,-8.934,-13.291,-12.92
29206,-0.1324,-0.1365,0.6409,-30.588,-35.696,-15.886
29225,-0.1509,-0.1081,0.7921,-33.266,-31.796,-15.23
29246,-0.316,-0.1717,0.7306,-47.799,-34.727,-19.999
29267,-0.3341,-0.2491,0.6029,-51.172,-51.181,-19.197
29287,-0.3806,-0.2083,1.0073,-51.291,-45.289,-7.538
29305,-0.3915,-0.1993,0.7653,-70.541,-45.113,-4.162
29323,-0.3729,-0.1012,0.8914,-52.764,-30.989,-3.619
29341,-0.3321,-0.0466,0.9533,-55.835,-33.784,-4.485
29358,-0.2609,0.0043,0.9574,-54.029,-26.381,-6.415
29379,-0.22,-0.1174,1.0978,-42.652,-25.111,1.879
29400,-0.2215,0.0306,1.0213,-34.062,-12.1,5.213
29420,-0.0308,0.0025,1.1706,-13.84,-3.009,15.503
29437,0.0178,0.2068,1.1905,-10.22,7.475,15.077
29457,0.0045,0.159,1.0441,14.513,15.58,19.094
29476,0.1835,0.1985,1.219,24.421,31.777,18.145
29499,0.2189,0.1749,1.0944,35.852,35.21,7.291
29517,0.2482,0.1644,1.0772,33.712,27.132,26.537
29537,0.3209,0.1298,1.2068,45.336,44.088,18.921
29559,0.3355,0.1163,1.1089,57.341,44.388,22.149
29580,0.377,0.0942,1.1516,59.829,38.972,12.774
29601,0.3524,0.1456,1.1107,63.505,40.036,18.92
29621,0.3018,0.1682,0.8861,40.075,35.926,4.086
29641,0.1769,0.0431,1.0578,43.889,20.767,2.011
29663,0.2436,-0.0108,0.9637,41.435,8.358,-2.517
29681,0.1386,-0.0792,0.8396,25.284,9.442,-14.094
29703,0.1144,-0.0296,0.8454,10.605,-7.378,-8.952
29721,0.0289,-0.0086,0.9101,-7.232,-9.97,-10.016
29741,-0.0912,-0.0341,0.7807,-7.354,-24.8,-14.863
29761,-0.0975,-0.0521,1.0133,-27.903,-22.059,-7.319
29780,-0.2025,-0.1164,0.9498,-31.007,-36.414,-24.318
29800,-0.2615,-0.1428,0.8211,-38.902,-38.034,-28.505
29819,-0.318,-0.0858,0.804,-46.737,-40.756,-24.917
29838,-0.2539,-0.2013,0.8337,-58.124,-47.052,-16.748
29857,-0.3853,-0.1569,0.8242,-62.356,-33.324,-8.591
29876,-0.3612,-0.0322,0.9342,-61.913,-29.266,-10.46
29896,-0.385,-0.1476,1.0337,-45.548,-31.45,-9.814
29914,-0.2529,-0.07,0.8705,-50.642,-28.72,4.05
29935,-0.2638,-0.0034,1.1166,-34.975,-18.031,0.718
29954,-0.1975,0.0011,1.1857,-27.414,-11.269,-1.346
29973,-0.1311,0.0865,1.1852,-20.096,-0.328,14.488
29992,-0.0285,0.136,1.1448,-6.686,6.761,16.255
30014,-0.0074,0.1158,1.2363,15.378,13.162,17.553
30034,0.0191,0.1855,1.3265,22.664,30.949,26.634
30054,0.2236,0.088,1.194,32.139,30.527,19.223
30075,0.1569,0.1384,1.1947,40.972,46.14,21.34
30092,0.3446,0.2702,1.3916,53.36,39.465,14.398
30112,0.4119,0.2443,1.1842,54.665,37.976,14.072
30135,0.3415,0.0708,1.0146,62.911,37.286,12.182
30155,0.4092,0.1158,1.1631,71.727,33.603,14.569
30175,0.32,0.0991,1.0725,57.656,29.845,3.71
30196,0.3595,0.0827,0.9194,56.934,24.52,2.008
30217,0.1993,0.0916,0.8281,34.497,9.501,-3.362
30234,0.0481,0.0912,0.9271,31.928,2.648,-6.267
30252,0.0966,-0.0292,0.8639,23.524,3.562,-13.558
30272,0.1083,-0.0071,0.7147,10.817,-6.737,-14.442
30291,-0.0254,-0.0583,0.8086,-2.543,-25.257,-22.026
30313,-0.1615,-0.1184,0.7878,-23.191,-23.105,-18.827
30332,-0.185,-0.2195,0.7939,-30.082,-27.458,-19.893
30349,-0.2039,-0.0938,0.8546,-48.359,-34.485,-19.625
30367,-0.3005,-0.1195,0.6427,-42.745,-46.908,-16.638
30383,-0.1936,-0.1295,0.7259,-60.464,-46.555,-9.222
30403,-0.3717,-0.1902,0.8186,-53.014,-39.813,-24.271
30423,-0.299,-0.0282,1.0369,-54.628,-27.858,-14.726
30442,-0.2976,-0.0983,1.1807,-52.368,-36.007,-13.877
30464,-0.336,-0.1336,0.9934,-41.278,-23.81,-3.108
30486,-0.269,-0.1075,1.0469,-37.218,-21.927,3.807
30505,-0.1385,0.0231,0.8387,-39.1,-2.238,-1.541
30522,-0.1224,0.0534,1.2067,-19.278,-2.969,9.755
30543,-0.0326,0.0294,1.1963,-17.938,0.231,16.558
30564,-0.0484,0.1073,1.2061,5.266,11.333,17.735
30584,0.1435,0.1432,1.0692,16.859,18.815,16.328
30606,0.2034,0.1386,1.398,35.593,31.168,22.98
30624,0.2415,0.1084,1.3479,37.829,31.685,18.725
30647,0.3189,0.198,1.2083,47.603,36.41,23.838
30666,0.3116,0.1895,1.2549,59.428,49.722,19.519
30687,0.3192,0.1656,1.1269,65.661,36.14,14.15
30704,0.3359,0.0814,1.1714,59.663,37.598,6.016
30723,0.3087,0.0355,0.9183,68.513,31.121,8.746
30745,0.4034,0.0756,0.7724,48.74,25.493,-1.404
30765,0.29,0.0869,0.828,45.289,21.551,-5.978
30786,0.1301,0.0573,0.8297,32.314,-1.665,-6.972
30806,0.2083,0.0008,0.8082,16.54,1.117,-9.808
30826,0.0074,-0.0833,0.886,11.528,-10.495,-19.116
30848,-0.0563,-0.1329,0.7904,-14.359,-17.091,-17.277
30868,-0.0889,-0.1176,0.8003,-33.305,-26.542,-19.771
30885,-0.2916,-0.133,0.6816,-33.729,-31.912,-22.652
30904,-0.2627,-0.0891,0.6781,-44.293,-34.156,-21.275
30925,-0.3299,-0.1739,0.8254,-46.33,-41.66,-16.074
30945,-0.3233,-0.1671,0.7918,-63.428,-30.163,-19.565
30963,-0.3296,-0.0357,0.8755,-57.055,-44.047,-12.445
30982,-0.3517,-0.0453,0.9656,-57.62,-29.48,-12.664
31001,-0.3378,-0.1459,1.1154,-55.236,-38.634,-3.523
31021,-0.2448,-0.001,0.9941,-45.879,-27.667,-0.289
31038,-0.2425,-0.1043,1.2158,-44.266,-18.559,-1.6
31057,-0.199,-0.0385,1.1163,-34.209,-16.942,0.334
31076,-0.128,-0.0006,1.1824,-20.953,-8.887,10.267
31098,0.0401,0.0478,1.2558,-9.374,4.641,9.508
31119,0.0398,0.1143,1.2492,-1.42,19.658,7.695
31139,0.0829,0.1145,1.1133,16.56,23.502,21.64
31158,0.0816,0.1594,1.3081,29.053,38.999,16.363
31178,0.1685,0.1226,1.1592,38.371,37.649,9.647
31197,0.2656,0.168,1.2143,47.957,35.934,19.217
31215,0.3175,0.1531,1.1779,56.258,26.346,23.069
31234,0.3165,0.073,1.251,57.651,31.963,13.34
31253,0.3674,0.1533,1.1416,64.235,36.464,11.699
31271,0.3117,0.1158,0.9268,62.664,26.535,12.661
31291,0.2673,0.0499,1.2305,41.77,27.928,3.771
31312,0.2981,0.0329,1.0575,38.678,22.688,0.871
31330,0.2847,0.0048,0.8794,25.048,12.853,1.804
31350,0.0937,-0.0213,0.78,24.178,4.218,-3.661
31370,0.0864,0.0456,0.9534,11.04,6.338,-9.936
31390,-0.0996,0.031,0.7285,0.001,-11.971,-22.856
31410,-0.1565,-0.2373,0.891,-9.977,-21.212,-14.315
31428,-0.1793,-0.0969,0.9086,-25.897,-32.012,-20.907
31446,-0.1539,-0.0889,0.7356,-39.13,-32.457,-17.396
31466,-0.3069,-0.1579,0.7351,-45.963,-39.255,-27.482
31488,-0.356,-0.1034,0.7825,-56.5,-30.543,-14.098
31504,-0.3356,-0.0633,0.7522,-65.23,-37.134,-21.448
31525,-0.348,-0.2024,0.9097,-55.181,-31.464,-12.223
31547,-0.381,-0.1063,0.968,-56.465,-33.722,-5.845
31567,-0.2168,0.0098,1.0474,-46.948,-23.212,-4.474
31587,-0.2877,-0.1204,0.9364,-53.222,-27.623,-0.086
31606,-0.2161,-0.0335,1.1457,-46.086,-13.816,2.714
31626,-0.1754,-0.0164,1.0041,-31.313,-10.716,0.572
31644,-0.0667,0.0888,1.2193,-13.219,-0.453,16.972
31660,0.0354,0.1214,1.011,-0.225,9.117,18.734
31682,0.1436,0.1017,1.3412,11.784,13.451,14.623
31700,0.0907,0.1169,1.1441,22.806,17.747,1.329
31719,0.2503,0.0472,1.2599,37.748,36.048,24.714
31737,0.2774,0.2155,1.2628,40.554,27.162,10.89
31755,0.3431,0.132,1.055,55.739,46.982,22.142
31775,0.3247,0.1411,1.2422,66.378,35.88,14.327
31794,0.3377,0.1885,1.074,54.175,42.261,18.086
31814,0.3952,0.1341,1.0609,58.456,40.037,7.466
31835,0.3785,0.1511,0.9801,49.755,26.722,8.507
31856,0.3729,0.1021,1.1614,45.672,28.078,-4.553
31876,0.2546,0.0508,0.8382,43.907,19.119,-0.442
31898,0.1702,0.0193,0.9516,21.659,12.091,-5.448
31917,-0.0161,-0.0844,0.8104,14.428,6.463,-5.816
31937,-0.0511,-0.068,0.9505,10.314,-4.497,-15.516
31958,-0.0732,-0.037,1.0493,-8.045,-21.86,-14.892
31980,-0.192,-0.1626,0.7398,-19.642,-26.514,-20.639
31998,-0.1586,-0.1698,0.8141,-40.628,-35.594,-17.46
32018,-0.3242,-0.1897,0.7683,-44.014,-39.088,-18.007
32040,-0.3339,-0.1423,0.9292,-43.504,-36.84,-14.649
32060,-0.361,-0.0757,0.8269,-61.232,-36.948,-23.058
32081,-0.2896,-0.1061,0.9781,-62.419,-35.602,-14.765
32100,-0.3742,-0.2247,0.8856,-56.029,-33.883,-9.58
32120,-0.2977,-0.0591,1.1933,-59.414,-28.009,2.124
32140,-0.2708,-0.0846,0.7949,-44.508,-25.837,7.322
32160,-0.1813,-0.0049,1.0961,-47.807,-8.958,-4.874
32180,-0.1183,-0.0041,1.0988,-39.703,-3.723,3.264
32200,-0.0887,-0.0061,1.1315,-13.349,1.841,-2.063
32219,-0.0976,0.0635,1.1928,-7.085,16.052,24.811
32240,0.0583,0.0747,1.1923,9.154,16.638,18.429
32264,0.1583,0.1393,1.2209,31.69,28.515,22.02
32281,0.2302,0.0935,1.2399,40.133,37.351,18.307
32302,0.2378,0.0916,1.364,40.947,31.224,19.808
32321,0.3716,0.1864,0.8943,56.53,50.642,24.459
32342,0.3425,0.1994,1.3263,57.103,36.915,11.456
32362,0.304,0.1599,1.3623,62.082,35.83,8.144
32383,0.3164,0.0776,0.8884,58.07,34.252,8.79
32405,0.4042,0.0445,1.0197,45.242,31.672,5.47
32425,0.2958,0.0171,1.1069,41.441,25.025,3.741
32447,0.2499,0.0594,1.0139,21.789,19.294,-3.886
32463,0.0901,-0.0535,1.0578,25.307,4.408,-11.671
32485,0.0247,-0.0045,0.8896,12.114,-3.549,-13.692
32506,-0.0578,-0.0488,0.6215,-7.591,-22.076,-14.374
32528,-0.0998,-0.0474,0.9369,-19.263,-28.487,-14.67
32546,-0.1827,-0.0747,0.8638,-34.696,-29.709,-14.379
32565,-0.2592,-0.1145,0.9493,-33.959,-32.608,-21.36
32585,-0.3052,-0.2225,0.6617,-55.627,-38.331,-23.175
32605,-0.3643,-0.1185,0.7152,-57.202,-37.24,-22.779
32625,-0.3547,-0.1355,0.8686,-65.753,-39.876,-10.173
32647,-0.2929,-0.1432,1.0411,-58.574,-38.14,-14.743
32664,-0.4116,-0.0381,1.1046,-52.406,-21.369,-13.174
32686,-0.2842,-0.0844,0.9198,-62.063,-28.228,-3.879
32706,-0.1849,-0.0725,0.9968,-40.261,-14.527,7.836
32725,-0.2059,0.0417,1.3656,-25.567,-18.231,-0.588
32743,-0.1606,-0.0043,1.0587,-22.351,-3.111,10.867
32764,-0.0081,0.0216,1.217,-12.685,2.374,9.736
32780,-0.0404,0.0188,1.1258,1.317,22.677,15.248
32801,0.0897,0.0626,1.2381,12.85,18.549,21.529
32819,0.1053,0.0867,1.1123,36.792,27.582,25.159
32839,0.1299,0.1704,1.1147,42.478,29.376,17.291
32859,0.2706,0.0973,1.1509,52.188,33.126,23.534
32881,0.2587,0.0564,1.1109,65.96,39.406,19.635
32900,0.3432,0.1579,1.1073,65.66,41.564,18.39
32919,0.4056,0.098,1.1562,59.372,43.176,19.729
32939,0.4316,0.1087,1.2516,58.223,31.152,6.354
32961,0.3116,0.145,0.9548,64.414,24.849,9.197
32981,0.3123,0.0541,0.8699,41.11,27.101,1.648
33001,0.2225,0.093,0.9262,33.858,20.439,2.28
33020,0.1178,-0.0181,0.8023,18.418,3.657,-5.699
33038,-0.0272,0.0058,0.6928,2.744,-1.723,-12.072
33059,0.0677,-0.1044,0.9341,-6.736,-4.952,-10.523
33076,-0.1327,-0.0948,0.8195,-18.051,-7.019,-19.998
33097,-0.089,-0.1703,0.8189,-30.23,-25.714,-21.096
33117,-0.1973,-0.1802,0.6088,-35.358,-29.782,-23.698
33141,-0.3368,-0.1604,0.757,-49.429,-37.496,-22.753
33159,-0.3067,-0.2157,0.6932,-50.188,-47.197,-32.104
33179,-0.238,-0.1342,0.8623,-58.332,-37.954,-18.769
33202,-0.2719,-0.1402,0.9201,-58.886,-30.209,-13.026
33224,-0.3563,-0.089,0.9665,-58.136,-35.986,-4.654
33243,-0.3341,-0.1404,0.929,-41.443,-35.697,-9.001
33263,-0.245,-0.0086,0.9553,-44.968,-16.063,-2.411
33283,-0.1969,0.0745,1.0642,-27.757,-19.422,3.692
33303,-0.0577,0.0978,1.1578,-26.093,-9.582,12.651
33322,-0.0078,0.1497,1.0952,-8.887,-1.334,13.348
33342,-0.0504,0.0866,1.0843,15.909,5.489,17.514
33360,0.1269,0.0902,1.1033,21.248,27.925,22.249
33380,0.1673,0.1528,1.134,23.219,30.149,21.927
33401,0.2443,0.1311,1.151,36.406,45.281,16.986
33420,0.3032,0.0624,1.0737,57.846,41.996,28.115
33438,0.384,0.19,1.119,56.003,50.156,8.81
33459,0.395,0.1292,1.2555,57.954,36.328,20.408
33480,0.3112,0.0514,1.0634,55.873,38.839,14.82
33499,0.3311,0.0788,0.9291,55.682,26.578,15.242
33518,0.2817,0.0682,0.7848,59.206,25.968,3.842
33536,0.1787,0.052,1.1536,41.556,28.063,-1.492
33555,0.202,0.0213,1.0425,32.561,12.933,-8.803
33574,0.2349,0.0564,0.9188,27.448,3.603,-12.741
33596,-0.0261,-0.1129,0.9688,5.006,-5.26,-12.603
33615,-0.0166,-0.0852,0.8799,-7.313,-12.772,-19.156
33636,-0.1,-0.1496,0.8007,-16.636,-21.247,-21.21
33655,-0.1523,-0.0631,0.6765,-28.417,-21.928,-24.553
33675,-0.2796,-0.1691,0.9932,-43.725,-37.743,-14.807
33695,-0.3557,-0.1661,0.7704,-46.396,-38.977,-23.297
33716,-0.3934,-0.0965,0.7985,-54.524,-39.367,-16.29
33735,-0.2784,-0.0757,0.8688,-69.006,-44.178,-16.787
33753,-0.3989,-0.0555,0.9032,-56.063,-40.024,-11.704
33771,-0.3652,-0.1932,0.992,-61.164,-30.527,-11.479
33790,-0.2096,-0.0628,1.0223,-49.934,-33.323,-2.387
33808,-0.3141,-0.0469,0.9593,-37.149,-9.204,0.776
33829,-0.2022,-0.029,1.066,-37.938,-6.554,8.494
33848,-0.103,0.009,1.1567,-29.992,-5.585,3.319
33872,-0.0157,0.1099,1.0785,-4.497,7.229,7.207
33889,-0.0661,0.124,1.3131,-4.12,15.722,12.42
33910,0.0471,0.1459,1.1871,23.652,23.323,17.803
33928,0.1649,0.1317,1.3582,23.365,27.518,21.566
33947,0.3103,0.2509,1.06,33.521,46.463,16.737
33967,0.2324,0.1273,1.2558,58.204,33.444,20.873
33984,0.2833,0.0692,1.086,54.61,37.306,18.164
34004,0.3584,0.1328,1.0854,65.953,40.344,15.914
34027,0.381,0.1352,1.2,59.867,41.541,14.016
34046,0.3766,0.1793,1.0485,58.243,45.045,18.208
34067,0.2738,0.0625,1.2851,39.567,29.433,10.381
34088,0.2453,0.0815,1.0298,51.671,25.137,7.037
34108,0.2263,-0.0494,0.8644,38.879,16.15,-0.909
34127,0.2149,0.0464,0.9472,25.464,5.51,1.922
34144,0.0768,-0.0328,0.8409,18.173,4.463,-5.896
34165,0.0055,-0.0834,0.917,1.322,-8.956,-21.209
34185,-0.1233,0.0091,0.7834,-17.069,-14.491,-13.27
34203,-0.0466,-0.065,0.8432,-22.154,-27.567,-17.027
34223,-0.2005,-0.1881,0.8203,-36.646,-34.938,-16.711
34242,-0.2095,-0.1519,0.8157,-41.451,-38.259,-27.434
34262,-0.3069,-0.0132,0.9294,-54.268,-37.766,-26.381
34282,-0.3334,-0.047,0.6711,-60.227,-34.389,-17.695
34300,-0.4243,-0.0897,0.8913,-62.603,-28.397,-23.587
34322,-0.4515,-0.2084,0.8548,-63.385,-34.494,-7.524
34340,-0.2612,-0.0279,0.8291,-58.117,-21.545,-6.702
34359,-0.2841,-0.0992,0.9229,-47.21,-21.594,6.427
34382,-0.2168,0.0355,0.9959,-42.687,-19.148,3.745
34403,-0.2206,-0.0314,1.0778,-32.982,-6.123,9.974
34424,-0.1254,0.0643,1.1728,-9.803,6.595,13.667
34442,0.0434,0.0362,1.2195,-2.349,14.993,14.349
34461,0.1522,0.077,1.1446,15.009,16.329,17.278
34482,0.1132,0.1509,1.3563,23.624,24.737,18.532
34502,0.2457,0.071,1.1622,33.497,30.883,7.924
34521,0.2761,0.2655,0.9967,36.982,35.776,25.521
34541,0.3046,0.0986,1.139,47.604,40.889,24.638
34561,0.4315,0.0913,1.1514,53.733,49.395,21.396
34579,0.3269,0.1663,0.7889,61.333,36.641,15.064
34598,0.4072,0.1826,1.1995,58.632,27.539,10.699
34692,0.1364,-0.0398,0.8678,14.984,-6.848,-14.519
34710,0.0474,-0.1067,0.733,-5.636,-2.359,-18.551
34730,0.0379,-0.1293,0.7269,-2.958,-17.858,-18.486
34749,-0.0899,-0.1594,0.8833,-13.508,-21.332,-16.834
34769,-0.1815,-0.1131,0.8886,-25.459,-33.029,-17.551
34788,-0.168,-0.1456,0.7381,-45.455,-35.317,-22.568
34811,-0.2328,-0.1284,0.683,-45.485,-40.211,-25.977
34831,-0.2698,-0.1299,0.855,-53.724,-43.401,-21.259
34849,-0.5411,-0.099,0.9014,-56.632,-33.288,-16.359
34871,-0.3258,-0.1433,0.9679,-62.672,-30.106,-20.054
34889,-0.3221,-0.1397,0.8932,-57.704,-29.462,-7.881
34908,-0.3037,-0.0694,0.9797,-42.602,-16.767,3.297
34929,-0.2213,-0.0475,1.0412,-34.779,-25.86,-4.076
34948,-0.1811,-0.0006,1.1768,-33.529,-12.42,14.803
34970,-0.0826,-0.0116,1.2557,-19.011,-3.317,5.369
34988,-0.0608,0.0856,1.3122,-19.093,10.089,11.215
35007,0.1026,0.0232,1.3066,10.765,8.503,17.82
35026,0.1404,0.085,1.3737,21.118,25.726,17.538
35046,0.2011,0.1843,1.3011,31.551,22.038,10.899
35067,0.2652,0.0861,1.1376,38.225,38.589,21.25
35088,0.3515,0.2021,1.3356,50.666,44.266,19.887
35111,0.3838,0.077,1.0173,64.369,34.336,16.383
35134,0.3438,0.0561,1.3536,61.718,36.973,15.064
35153,0.3951,0.0438,0.9824,72.396,41.8,13.688
35173,0.333,0.1007,1.1256,59.648,37.916,3.078
35191,0.3868,0.1059,1.1407,45.284,18.058,6.288
35210,0.2977,0.1041,0.9997,39.565,19.875,-3.715
35229,0.1522,0.0684,0.7083,27.897,13.229,2.761
35247,0.2359,0.0204,0.7839,24.755,1.877,-3.533
35266,-0.0586,-0.0954,0.8832,13.736,0.539,-17.352
35285,0.0033,-0.1244,0.887,3.686,-17.634,-9.286
35304,-0.1371,-0.0679,0.7896,-19.196,-24.547,-15.756
35325,-0.0841,-0.0578,0.8076,-28.202,-32.923,-16.791
35344,-0.2257,-0.1939,0.6563,-34.45,-33.448,-20.902
35368,-0.338,-0.0851,0.9973,-43.39,-40.096,-21.094
35387,-0.3438,-0.244,0.8048,-62.807,-35.613,-19.233
35407,-0.3836,-0.1192,0.9531,-56.541,-41.013,-20.182
35425,-0.3637,-0.1295,1.0486,-65.699,-37.76,-21.877
35448,-0.3447,-0.1087,0.8415,-59.281,-30.473,-11.279
35469,-0.328,-0.0676,1.017,-56.328,-29.005,-6.773
35490,-0.2229,-0.0785,1.0789,-43.625,-11.741,-4.278
35508,-0.1597,0.0166,1.0634,-37.985,-5.729,8.094
35528,-0.1571,0.0311,1.2198,-24.307,3.066,10.604
35547,-0.1167,0.1056,1.0903,-10.319,3.238,9.971
35569,0.0686,0.1705,1.1882,10.604,25.469,14.735
35590,0.1595,0.1229,1.1596,22.956,16.458,19.68
35610,0.2387,0.0938,1.4324,26.434,35.692,16.126
35626,0.2778,0.0875,1.1286,56.61,36.559,7.222
35645,0.3753,0.2346,1.2554,48.418,42.274,25.405
35666,0.3819,0.2261,1.3354,50.276,39.188,17.183
35688,0.4831,0.1809,1.0282,62.753,39.671,16.293
35709,0.5003,0.1211,1.0886,59.166,39.535,12.255
35727,0.2386,0.1377,0.9416,51.916,31.67,0.621
35748,0.1779,0.1325,0.7917,51.279,26.041,-0.148
35769,0.2324,0.0029,0.8677,36.542,18.106,-1.514
35787,0.2003,0.0051,0.8513,28.543,20.137,-6.446
35807,0.0989,-0.0854,0.8197,24.935,-7.794,-15.299
35827,0.0602,-0.0688,0.8099,4.912,-2.293,-11.6
35847,-0.0674,-0.0141,0.8177,-6.166,-15.018,-13.475
35864,-0.1537,-0.0585,0.6853,-23.006,-22.183,-20.133
35883,-0.2136,-0.1242,0.8352,-31.192,-36.437,-14.552
35903,-0.2581,-0.2787,0.926,-46.387,-29.382,-17.333
35923,-0.255,-0.1825,0.9524,-55.016,-44.076,-17.478
35942,-0.3541,-0.143,0.8158,-58.591,-32.321,-20.434
35961,-0.3616,-0.1505,0.9609,-62.99,-41.841,-16.487
35981,-0.3198,-0.1222,0.8411,-54.514,-29.21,-8.277
36002,-0.3403,-0.0883,0.9193,-53.734,-35.428,-15.657
36021,-0.2422,-0.1011,1.036,-62.561,-30.738,-11.27
36041,-0.2953,-0.0437,1.0076,-34.124,-19.141,-1.898
36061,-0.2447,-0.0175,0.9576,-29.008,-13.985,4.522
36078,-0.1128,-0.0164,1.2004,-16.224,-3.889,7.768
36099,-0.0276,0.1456,1.0691,-9.047,15.192,14.92
36119,-0.0121,0.0595,1.1253,-2.124,12.679,16.74
36139,0.1758,-0.0035,1.2993,11.992,24.229,18.066
36160,0.2801,0.2195,1.2537,40.047,38.353,18.018
36177,0.2059,0.0998,1.2146,32.55,36.059,24.077
36194,0.3565,0.1937,1.0398,41.135,43.693,25.724
36215,0.2038,0.1151,1.0483,53.196,42.864,16.908
36235,0.3988,0.1704,1.1747,52.215,44.921,18.103
36255,0.3066,0.125,1.1614,62.57,37.414,11.813
36274,0.386,0.1576,1.0843,60.857,36.819,3.529
36295,0.2576,0.0692,0.965,54.464,36.916,-3.158
36317,0.2508,0.0134,0.9122,40.512,18.243,6.141
36337,0.1533,0.0259,0.9413,34.668,13.673,-0.232
36357,0.1128,-0.04,0.7555,30.091,-0.705,-6.495
36374,0.1502,-0.1453,0.8614,2.886,0.197,-6.818
36395,-0.0296,-0.1109,0.6858,1.44,-22.522,-19.28
36417,-0.0039,0.034,0.7011,-14.716,-24.395,-13.531
36438,-0.2038,-0.2216,0.8178,-32.165,-24.903,-17.796
36456,-0.1663,-0.1307,0.8619,-40.46,-35.378,-22.153
36477,-0.3751,-0.1617,0.852,-48.591,-47.201,-31.014
36499,-0.346,-0.0559,0.7323,-61.733,-43.582,-24.94
36521,-0.3758,-0.1923,0.6923,-67.985,-42.171,-6.394
36540,-0.2698,-0.1154,0.9153,-54.895,-28.097,-3.398
36559,-0.3191,-0.0643,0.7669,-62.523,-27.562,-15.203
36580,-0.3951,-0.0783,1.0984,-55.301,-20.441,-13.568
36601,-0.3022,-0.0744,0.9428,-43.153,-23.04,7.661
36619,-0.2303,-0.007,1.3124,-29.379,-9.204,4.754
36639,-0.061,0.0124,1.0307,-20.966,7.512,5.759
36660,0.0139,0.0462,1.206,-8.139,13.636,7.087
36680,0.0376,0.1374,1.109,13.777,15.134,10.068
36701,0.1051,0.1365,1.1799,21.051,29.584,25.078
36720,0.2344,0.1615,1.2183,30.044,25.237,20.966
36743,0.2095,0.1633,1.2775,47.573,32.684,10.953
36761,0.3294,0.198,1.2778,52.835,30.001,15.619
36780,0.3541,0.2119,1.2243,57.655,39.681,25.358
36800,0.3356,0.1216,1.2222,62.099,42.292,16.315
36822,0.3638,0.157,1.0135,58.278,30.795,4.056
36839,0.3304,0.031,1.1032,59.982,30.932,4.402
36858,0.3151,-0.0437,0.9614,42.61,21.126,2.987
36874,0.1836,0.1352,1.0582,49.11,16.349,4.681
36895,0.2164,-0.0078,0.9262,27.265,5.265,-5.262
36913,0.1732,-0.009,0.9419,12.708,8.674,-1.711
36932,0.0651,-0.114,0.8777,4.475,-9.555,-10.938
36953,-0.0038,-0.1479,0.8981,-7.544,-16.46,-27.084
36972,-0.1128,-0.1445,0.7259,-22.072,-25.351,-15.254
36993,-0.1381,-0.0979,0.6429,-36.144,-28.209,-20.423
37012,-0.2389,-0.1688,0.9026,-36.458,-22.277,-22.527
37033,-0.3522,-0.1664,0.9528,-54.891,-24.384,-17.498
37054,-0.2899,-0.1851,0.8314,-68.017,-40.83,-19.091
37073,-0.4293,-0.0808,0.9542,-61.343,-36.997,-14.506
37093,-0.3338,-0.0796,0.748,-49.415,-31.637,-14.902
37114,-0.3484,-0.1236,0.8934,-61.747,-25.39,-11.043
37135,-0.3143,-0.0359,1.0109,-54.543,-21.919,1.828
37153,-0.2383,-0.0541,0.8696,-44.338,-12.788,0.913
37174,-0.217,-0.0237,0.9349,-23.404,-7.399,7.085
37192,-0.0917,0.0211,1.1381,-21.909,-4.563,5.958
37214,-0.0297,0.0915,1.097,-10.688,13.976,18.312
37236,0.0235,0.0469,1.1484,11.127,18.559,17.365
37256,0.1974,0.1409,1.1558,23.811,27.147,16.818
37276,0.2102,0.2591,1.0715,36.717,25.022,26.069
37296,0.2909,0.155,1.1713,39.142,32.667,18.268
37317,0.3782,0.1518,1.174,49.865,37.552,20.003
37336,0.406,0.1423,1.0926,63.225,42.895,11.383
37357,0.3786,0.1587,1.0656,61.98,47.964,11.458
37378,0.3285,0.0351,1.0537,62.952,39.433,14.84
37397,0.2501,0.1776,1.1148,54.854,29.791,6.885
37416,0.295,0.1143,0.9806,54.087,19.53,3.45
37435,0.2895,0.0027,0.755,41.707,23.361,-1.746
37453,0.1951,0.0063,0.7903,27.795,11.036,-5.549
37470,-0.0557,-0.0519,0.9704,23.696,-14.17,-11.593
37491,0.0791,-0.0432,0.775,1.721,-2.404,-15.21
37514,-0.0086,-0.0887,0.8079,-1.743,-15.569,-17.835
37536,-0.1537,-0.1067,0.9952,-18.719,-36.474,-20.142
37554,-0.1513,-0.1858,0.8633,-35.871,-28.227,-17.433
37575,-0.2311,-0.1704,0.5928,-45.932,-35.799,-17.795
37597,-0.3457,-0.0926,0.9716,-52.73,-45.719,-12.357
37616,-0.2748,-0.1723,0.8674,-58.865,-29.514,-13.68
37636,-0.4132,-0.2661,0.9234,-53.373,-36.128,-18.825
37653,-0.3484,-0.1261,0.9505,-61.931,-38.016,-14.826
37674,-0.3306,0.027,1.0568,-62.844,-34.331,-2.649
37692,-0.33,-0.0255,0.998,-50.791,-25.549,-0.086
37713,-0.2189,-0.0638,0.9047,-36.366,-17.312,6.542
37730,-0.1145,-0.0086,1.1211,-25.793,-6.39,5.115
37751,-0.042,0.0634,0.9902,-17.325,-1.061,8.239
37773,0.0173,-0.0231,1.3439,-6.41,7.921,15.286
37791,-0.0327,0.0479,1.1463,8.719,18.421,9.392
37810,0.0579,0.134,1.1906,18.109,22.729,17.383
37826,0.1899,0.2095,1.1323,19.598,29.596,29.29
37846,0.2423,0.1214,1.2299,37.576,42.272,18.35
37865,0.267,0.2278,1.2284,52.597,36.22,19.459
37883,0.4202,0.1112,1.095,54.35,39.238,17.252
37904,0.3517,-0.0287,1.1763,57.843,35.692,23.354
37923,0.3762,0.1633,1.1025,65.38,42.795,6.948
37941,0.3862,0.1342,1.0487,52.922,25.116,12.884
37960,0.3115,0.1191,0.941,48.606,23.999,3.542
37982,0.3883,0.0837,1.198,46.007,23.856,-2.612
38003,0.149,0.0237,1.0394,30.041,10.854,-12.463
38023,0.0957,-0.0327,0.9547,18.012,7.14,0.202
38044,-0.0015,-0.0652,0.9599,15.565,-7.706,-8.792
38062,0.0526,-0.1043,0.8543,-9.729,-17.933,-21.958
38082,-0.063,-0.1275,0.7724,-21.341,-23.167,-24.112
38102,-0.2027,-0.2188,0.5359,-27.893,-35.848,-22.629
38121,-0.2792,-0.2026,0.681,-40.709,-38.628,-17.494
38142,-0.221,-0.1575,1.0328,-56.619,-33.731,-20.215
38161,-0.3072,-0.2609,0.9534,-46.839,-41.171,-22.813
38182,-0.276,-0.2408,0.8896,-63.378,-39.645,-16.213
38203,-0.3514,-0.1408,0.751,-60.947,-36.27,-6.143
38218,-0.3121,-0.1145,1.0035,-55.699,-41.596,-6.69
38240,-0.2896,-0.0948,0.9611,-41.399,-35.222,-14.088
38255,-0.3023,-0.1755,1.0926,-48.519,-20.211,-6.976
38274,-0.2248,0.0521,0.9534,-41.905,-16.556,1.918
38296,-0.2026,-0.0602,1.0602,-22.099,-5.978,8.047
38316,-0.0435,0.004,1.2325,-1.246,7.228,17.903
38333,0.0367,0.0083,1.3607,0.454,7.003,14.244
38352,0.1229,0.1629,1.1214,11.146,16.732,19.645
38373,0.1851,0.143,1.0985,27.98,25.462,8.035
38390,0.2029,0.1127,1.3018,25.497,34.006,17.844
38412,0.3495,0.1204,1.0639,43.538,35.333,23.353
38432,0.359,0.1588,1.0522,44.772,36.357,28.263
38450,0.4084,0.0831,1.1731,56.315,48.42,10.366
38469,0.4223,0.1532,1.3227,57.395,38.818,13.589
38488,0.3382,0.0894,0.9916,45.86,38.782,2.358
38509,0.3396,0.1173,0.9939,55.78,21.132,5.93
38530,0.3166,0.0851,0.9946,50.73,16.714,7.55
38548,0.1717,0.0021,0.8963,38.314,19.011,2.893
38567,0.1111,-0.1028,0.7272,21.065,6.698,-6.176
38586,0.0331,-0.0445,0.9489,23.138,-2.572,-11.16
38608,0.0069,-0.1397,0.8542,11.596,-15.221,-0.844
38626,-0.0753,-0.089,0.8527,-8.055,-13.187,-17.569
38648,-0.2136,-0.1319,0.7882,-26.083,-23.019,-21.517
38668,-0.2025,-0.1659,0.9518,-37.701,-32.708,-22.657
38686,-0.267,-0.211,0.7571,-42.79,-35.232,-27.286
38705,-0.2465,-0.0907,0.7159,-51.946,-40.655,-16.968
38724,-0.2343,-0.1695,1.0142,-55.247,-43.419,-14.256
38742,-0.3257,-0.0199,0.6573,-57.505,-41.719,-12.111
38762,-0.3816,-0.119,0.9003,-63.139,-32.441,-7.998
38780,-0.2977,-0.0826,0.9466,-60.694,-34.074,-11.35
38797,-0.3012,-0.0751,0.9807,-53.123,-26.662,-5.569
38817,-0.2662,-0.0291,0.8821,-41.245,-21.781,5.491
38834,-0.2467,0.0366,0.9555,-42.697,-7.914,1.207
38853,-0.1614,0.0693,1.2078,-24.834,-7.479,4.863
38871,-0.0792,-0.0443,1.2817,-12.236,11.536,16.222
38890,0.0446,0.1163,1.1279,-1.68,9.433,10.533
38913,0.1198,0.1296,1.0981,23.173,18.814,11.84
38933,0.2587,0.1279,1.021,34.867,38.68,14.009
38953,0.2658,0.2268,1.2917,41.869,28.858,33.484
38971,0.3015,0.2361,1.2873,56.901,37.495,24.777
38990,0.3032,0.1948,0.887,58.998,44.735,21.728
39010,0.2911,0.1162,0.8971,59.462,32.087,11.818
39029,0.3215,0.071,1.1194,57.61,39.337,16.223
39050,0.304,0.1473,1.0894,56.139,26.378,18.396
39068,0.1864,0.1546,0.9754,55.801,29.317,8.016
39088,0.2215,-0.0444,0.9747,44.754,32.424,-3.741
39107,0.2988,0.0804,0.9114,29.9,2.888,0.172
39127,0.1702,-0.0204,0.8979,24.12,5.545,-7.687
39146,0.0622,-0.1299,0.7712,19.035,-4.923,-10.046
39166,0.0226,-0.0474,0.8313,-12.418,-16.569,-19.072
39185,-0.1697,-0.052,0.7456,-5.336,-27.084,-20.719
39204,-0.1293,-0.1371,0.7264,-21.717,-20.947,-21.162
39225,-0.1506,-0.1904,0.6141,-37.947,-31.773,-23.767
39245,-0.2771,-0.0618,0.7923,-45.032,-46.368,-20.163
39265,-0.4024,-0.1833,0.9089,-48.993,-44.205,-22.266
39285,-0.3613,-0.0867,0.8235,-58.219,-42.653,-8.681
39306,-0.286,-0.2069,0.8574,-55.256,-46.01,-11.404
39325,-0.3286,-0.092,1.0568,-54.301,-34.276,-6.678
39345,-0.3867,-0.0684,1.0776,-53.252,-28.098,-7.076
39365,-0.1555,-0.0145,1.1937,-52.497,-21.332,-11.993
39388,-0.2713,0.054,1.2965,-36.242,-3.174,7.415
39406,-0.1596,-0.0309,1.1131,-35.48,-10.08,6.595
39427,-0.1205,0.0708,1.0281,-9.532,1.736,13.42
39444,-0.0536,0.0029,1.1156,-2.4,8.993,13.92
39464,0.0542,0.0301,1.2452,10.086,24.189,5.921
39487,0.1938,0.0958,1.3432,31.053,31.894,17.016
39507,0.292,0.1607,1.0932,32.643,28.166,15.828
39528,0.2644,0.2327,1.2117,49.19,45.122,20.735
39547,0.2704,0.2424,1.087,53.306,35.214,20.796
39567,0.368,0.1249,1.1225,58.077,44.004,27.106
39587,0.3751,0.1438,1.0848,61.37,41.658,15.661
39605,0.3516,0.1574,1.1021,67.325,36.194,7.235
39625,0.3256,0.1229,1.2231,55.453,27.035,3.787
39645,0.2626,0.0462,1.0222,52.781,20.144,4.044
39664,0.2191,0.0275,0.89,43.692,16.44,1.403
39683,0.1411,-0.014,0.8349,29.6,8.356,-13.207
39701,0.1367,-0.049,0.8431,5.044,1.15,-11.86
39721,0.1163,-0.0872,0.746,-0.369,-7.742,-14.927
39742,-0.0687,-0.1053,0.8259,-18.762,-18.291,-25.158
39763,-0.1561,-0.1433,0.5601,-12.382,-20.524,-15.448
39784,-0.2123,-0.1965,0.7805,-43.612,-36.632,-18.822
39804,-0.3124,-0.1053,0.7992,-55.399,-37.418,-20.745
39825,-0.283,-0.1236,0.7179,-68.917,-42.556,-17.269
39845,-0.3221,-0.0487,0.825,-64.188,-27.505,-13.037
39865,-0.3707,-0.1099,1.0114,-59.328,-33.835,-3.62
39884,-0.2932,-0.1297,1.0578,-52.565,-28.847,-6.523
39908,-0.301,-0.1085,0.9386,-57.11,-24.754,-10.489
39927,-0.3057,-0.0456,1.087,-38.24,-20.352,13.588
39946,-0.1831,0.0111,0.9261,-34.726,1.124,-1.849
39967,-0.1158,0.0067,1.0877,-24.304,3.151,10.227
39987,-0.0033,-0.0217,1.1737,-7.926,4.491,11.117
40005,0.0614,0.0423,1.3268,10.479,12.602,14.519
40026,0.096,0.1079,1.3117,17.646,23.499,19.666
40046,0.1504,0.1648,1.2206,24.284,26.548,21.651
40065,0.2348,0.0673,1.1062,42.362,32.659,26.889
40086,0.3074,0.1625,1.3199,51.623,30.637,16.303
40107,0.3517,0.1596,1.1265,55.189,27.949,20.099
40125,0.3608,0.1187,1.1779,64.369,49.477,19.046
40148,0.3436,0.0942,1.0779,48.236,34.263,24.151
40169,0.3797,0.0632,1.2449,58.34,30.551,10.84
40189,0.2616,0.0795,0.9398,54.541,26.238,-1.699
40212,0.361,0.0926,1.041,33.387,20.66,5.751
40232,0.2114,0.0625,0.8986,22.278,12.52,-7.787
40252,0.0442,-0.0872,0.9268,22.236,4.807,-14.042
40271,0.0361,-0.071,1.0025,10.467,-5.985,-6.605
40292,-0.0174,-0.2017,0.6161,-2.811,-19.128,-15.731
40312,-0.1496,-0.1108,0.7968,-26.112,-19.047,-19.542
40332,-0.2762,-0.1047,0.7108,-33.526,-32.552,-11.323
40351,-0.3098,-0.0671,0.8512,-42.533,-30.986,-22.53
40371,-0.2772,-0.2393,0.8921,-60.71,-46.766,-21.801
40391,-0.4231,-0.2011,0.8012,-56.703,-33.491,-14.975
40409,-0.4212,-0.1302,0.8256,-59.081,-43.551,-26.409
40427,-0.3208,-0.2033,0.9327,-55.864,-43.825,-11.361
40448,-0.3394,-0.0899,0.8297,-59.13,-38.233,-7.692
40464,-0.3358,-0.0454,1.0262,-45.354,-25.823,-8.935
40484,-0.2781,-0.1097,0.9561,-43.026,-8.072,-0.271
40504,-0.2662,-0.0058,1.1544,-24.487,-12.153,5.602
40526,-0.0906,-0.0359,0.9917,-15.951,-1.932,8.765
40545,-0.082,0.1245,1.0975,-5.757,11.028,16.667
40566,0.0145,0.0973,1.1047,1.161,13.363,17.239
40585,0.1318,0.079,1.1646,13.013,22.915,17.267
40605,0.1728,0.0689,1.3376,39.835,28.55,23.061
40626,0.215,0.1639,1.2795,47.292,45.425,21.335
40646,0.1993,0.2177,1.1319,49.792,39.155,34.375
40667,0.3516,0.1087,1.1062,55.049,43.741,22.767
40686,0.3524,0.1159,1.2121,60.836,35.605,12.591
40706,0.3211,0.0835,0.9688,52.762,30.652,3.349
40728,0.2732,0.1734,1.0403,53.393,34.435,4.238
40749,0.2861,-0.0297,0.9302,51.999,25.592,-7.147
40771,0.2508,0.0948,0.9247,42.612,20.91,1.428
40790,0.1696,-0.0203,0.9833,26.402,3.124,-7.554
40808,0.1808,-0.0354,0.8022,24.958,-1.002,-13.668
40827,0.0603,-0.0793,0.9373,9.519,-15.497,-10.323
40848,-0.0632,-0.0807,1.0361,-13.751,-20.44,-18.298
40868,-0.0968,-0.1532,0.8636,-29.305,-32.752,-16.612
40889,-0.2036,-0.0827,0.7919,-32.355,-33.476,-21.132
40907,-0.2568,-0.0908,0.9226,-46.654,-29.691,-19.576
40928,-0.2423,-0.1992,0.7136,-55.851,-43.492,-12.656
40946,-0.3796,-0.1135,0.9996,-56.266,-44.353,-12.944
40968,-0.3484,-0.1527,0.8087,-56.335,-39.569,-7.438
40992,-0.2818,-0.1098,1.1488,-54.546,-35.56,-8.683
41013,-0.298,-0.0096,0.9064,-53.456,-25.11,-15.142
41034,-0.2864,-0.0882,1.0917,-57.411,-28.151,-4.863
41053,-0.2991,0.0228,0.9113,-31.883,-26.506,-5.231
41070,-0.2705,0.0281,1.0807,-30.933,-6.251,11.169
41089,0.0172,0.0274,1.0283,-13.306,10.45,10.53
41108,0.0031,0.0856,1.0202,-2.722,9.5,20.145
41126,0.0295,0.1054,1.3046,21.276,20.038,21.669
41148,0.1593,0.0612,1.0749,34.602,25.893,18.134
41169,0.1657,0.1069,1.1258,34.238,36.373,28.594
41189,0.2534,0.095,1.1053,39.556,35.526,24.675
41209,0.266,0.1361,1.2859,47.332,39.097,19.287
41228,0.2686,0.2125,1.2479,59.51,48.138,19.212
41250,0.2448,0.1607,1.2351,57.301,43.934,21.004
41270,0.2612,0.0405,0.9889,52.916,31.13,12.599
41291,0.3641,0.0719,1.1563,51.046,25.563,2.716
41310,0.2231,0.069,0.899,48.964,19.348,-4.041
41330,0.243,0.062,0.859,36.68,8.697,-3.995
41348,0.204,-0.0382,0.8277,24.356,3.708,-10.028
41365,0.0942,-0.096,0.8004,14.23,-1.8,-9.087
41384,0.0044,-0.0673,0.8289,2.506,-13.558,-16.131
41404,-0.0529,-0.0648,0.7319,-9.091,-15.59,-18.426
41422,-0.1489,-0.1033,0.827,-20.541,-33.347,-12.387
41442,-0.1376,-0.178,0.5391,-42.154,-37.249,-11.432
41462,-0.1637,-0.0578,0.8293,-43.315,-32.827,-23.856
41479,-0.2256,-0.1547,0.7108,-52.909,-29.235,-21.182
41498,-0.4379,-0.1383,0.7755,-61.698,-38.709,-19.042
41519,-0.3701,-0.1712,0.8113,-61.568,-43.368,-13.719
41539,-0.347,-0.0662,1.0084,-53.737,-41.975,-10.286
41557,-0.3079,-0.0726,1.0029,-52.71,-34.186,-11.062
41578,-0.3814,-0.0565,0.9829,-50.093,-19.521,-1.479
41599,-0.3296,-0.0969,0.975,-46.05,-15.376,-1.615
41620,-0.1109,0.0505,1.1693,-37.016,-15.218,3.51
41640,-0.1319,0.0674,1.3081,-22.532,1.748,5.015
41659,-0.1047,0.111,1.1555,-5.135,15.641,18.264
41679,-0.0065,0.0914,1.0219,8.509,22.923,20.69
41699,0.1447,0.1105,1.1255,18.198,31.357,20.115
41719,0.1541,0.124,1.2559,37.864,35.131,22.995
41740,0.2702,0.2596,1.1491,46.173,29.755,25.508
41761,0.2576,0.1229,1.09,39.286,35.134,22.89
41782,0.2504,0.0866,1.0583,58.429,48.675,20.859
41802,0.4209,0.1158,1.1239,63.729,36.957,12.355
41823,0.3631,0.0883,0.9196,59.848,25.672,3.335
41844,0.3007,0.1521,1.0237,57.325,32.711,2.642
41863,0.2526,-0.0065,0.9931,46.459,28.588,13.391
41881,0.3034,0.0043,0.8993,39.126,15.819,-2.834
41903,0.1877,0.0048,0.7944,26.883,9.466,1.498
41923,0.1414,0.0252,0.9644,15.33,-6.438,-7.873
41941,-0.0156,-0.0311,0.7028,-0.559,-12.645,-13.943
41960,-0.0587,-0.0129,0.8327,-5.039,-27.371,-21.076
41981,-0.1205,-0.1015,0.8752,-16.991,-31.545,-22.253
42000,-0.2332,-0.1457,0.8163,-37.922,-24.841,-20.456
42020,-0.2688,-0.1037,0.9311,-51.099,-53.158,-20.603
42042,-0.3416,-0.2183,0.7142,-60.289,-41.377,-16.172
42060,-0.3179,-0.2313,0.7727,-55.898,-42.643,-20.586
42079,-0.4156,-0.0862,0.8377,-56.989,-35.774,-17.829
42099,-0.3159,-0.1064,1.2524,-57.015,-46.198,-6.825
42120,-0.3048,-0.0433,1.0197,-52.439,-34.029,2.52
42141,-0.2883,-0.1036,1.0858,-50.527,-26.138,-1.939
42162,-0.1979,0.0372,1.128,-47.73,-12.851,4.59
42182,-0.172,0.0403,1.1116,-28.849,-6.22,6.032
42203,-0.109,0.0403,1.246,-4.672,-4.98,10.683
42223,0.0303,0.0834,0.9822,1.852,10.463,13.41
42243,0.1108,0.1179,1.2165,16.093,16.506,15.448
42263,0.1304,0.0801,1.2416,31.224,29.909,21.824
42283,0.1924,0.1199,1.3005,33.87,32.153,23.015
42304,0.2703,0.165,1.072,49.03,46.374,18.544
42325,0.2936,0.1281,1.0578,57.626,36.446,15.615
42345,0.4205,0.069,1.0349,54.344,36.883,13.917
42364,0.3656,0.144,1.1547,61.787,35.147,16.717
42384,0.3391,0.1506,1.115,64.478,32.949,5.785
42404,0.263,0.1363,0.9221,51.075,32.503,0.554
42424,0.3021,0.0794,1.1634,36.841,19.021,2.602
42448,0.1636,0.0541,0.9486,34.15,9.388,-4.541
42467,0.095,0.0304,0.8951,18.594,4.711,-8.974
42488,0.086,-0.0495,0.8271,9.023,-11.274,-8.163
42509,-0.0162,-0.1909,0.9146,-10.307,-12.489,-15.947
42529,-0.2379,-0.0525,0.8448,-19.023,-25.39,-21.345
42553,-0.2053,-0.1783,0.9891,-27.713,-35.833,-18.853
42572,-0.2483,-0.2016,0.6845,-43.774,-45.1,-23.242
42593,-0.3209,-0.2051,0.6681,-60.345,-44.555,-14.79
42611,-0.3247,-0.0232,0.7711,-55.161,-41.028,-17.585
42631,-0.4391,-0.1155,0.9327,-59.662,-39.577,-20.3
42651,-0.4883,-0.1727,0.8731,-58.372,-37.662,-11.067
42673,-0.373,-0.1291,1.0903,-50.724,-38.356,-11.487
42693,-0.2724,-0.0665,0.9689,-51.736,-25.546,1.974
42715,-0.3894,-0.0041,1.1654,-40.55,-23.71,1.303
42735,-0.205,0.0164,1.0156,-33.056,-13.66,9.367
42754,-0.1891,-0.0121,1.2518,-14.975,6.669,7.038
42778,-0.0113,0.0881,1.3055,0.986,11.241,13.415
42799,0.1811,0.0706,1.1327,12.965,22.676,19.321
42818,0.1429,0.1748,1.2476,30.098,34.41,18.224
42837,0.2119,0.1409,1.2258,32.066,32.544,15.439
42855,0.3102,0.1091,1.2426,46.624,41.526,23.485
42877,0.3164,0.1842,1.2988,57.068,41.335,20.191
42896,0.3297,0.1639,1.2414,55.658,36.154,11.503
42917,0.3963,0.1076,1.1588,53.132,37.284,12.066
42936,0.3653,0.1494,1.1353,50.095,30.82,6.391
42958,0.3269,0.1166,0.8937,54.339,31.68,3.545
42976,0.2672,0.1185,0.9759,55.461,27.399,-0.267
42995,0.2041,0.0631,0.8279,34.906,8.017,-3.485
43015,0.2008,-0.0169,0.8951,28.822,1.759,-13.79
43036,0.06,-0.1258,0.9712,1.036,-5.104,-13.02
43056,0.0598,-0.0632,0.8305,1.565,-16.255,-9.6
43075,-0.1287,-0.0818,0.5616,-18.531,-21.21,-8.421
43096,-0.0829,-0.1201,0.6966,-28.464,-25.834,-24.729
43115,-0.1944,-0.2888,0.8591,-36.973,-26.784,-14.51
43134,-0.3198,-0.1135,0.756,-54.822,-39.787,-8.685
43153,-0.2868,-0.1955,0.906,-37.8,-42.36,-19.894
43175,-0.3741,-0.1099,0.7371,-61.582,-38.179,-14.174
43196,-0.3483,-0.0453,0.9331,-56.956,-38.426,-8.606
43217,-0.363,-0.1219,0.9811,-50.595,-41.958,-12.042
43239,-0.3131,-0.0586,1.0656,-51.076,-32.24,-0.522
43263,-0.2029,-0.042,0.9751,-48.989,-20.942,-0.864
43280,-0.1726,0.0108,1.1553,-33.523,-8.235,8.7
43299,-0.1888,0.0219,1.2655,-31.905,1.84,15.587
43318,-0.1138,0.0223,0.9199,-12.008,-0.441,18.02
43337,0.028,0.0321,1.1778,10.872,9.356,13.344
43355,0.1021,0.1812,1.0088,7.5,24.862,20.292
43375,0.1252,0.1458,1.113,23.119,25.379,16.767
43393,0.2982,0.1799,1.1211,46.753,34.697,14.209
43413,0.3151,0.1678,1.1825,46.166,36.146,18.725
43434,0.2865,0.1984,1.2064,50.012,39.612,22.752
43454,0.3065,0.0988,1.2307,60.676,37.553,15.215
43475,0.3384,0.1335,1.1291,57.626,43.206,20.756
43496,0.3208,0.1331,1.1268,44.264,25.741,10.01
43515,0.3726,0.1477,0.9095,46.312,26.145,0.31
43539,0.3041,0.1802,1.069,53.971,24.638,-1.059
43559,0.1963,0.0338,0.5906,34.991,10.144,-7.38
43576,0.1693,-0.0485,1.0393,30.523,3.093,-1.254
43595,0.1046,-0.1067,0.9888,5.726,-0.143,-9.059
43612,-0.0006,-0.1185,0.9056,-0.878,-10.131,-14.795
43632,-0.0618,-0.1394,1.034,-14.888,-16.457,-13.486
43652,-0.1264,-0.2681,0.6208,-29.505,-21.894,-22.921
43671,-0.195,-0.1723,0.8791,-36.552,-40.631,-25.59
43694,-0.3211,-0.1128,0.8268,-53.937,-40.343,-26.004
43715,-0.3568,-0.1454,0.8598,-49.313,-44.198,-27.529
43736,-0.3601,-0.1543,0.7504,-56.913,-38.25,-21.327
43755,-0.3848,-0.2085,0.9411,-60.775,-32.563,-10.278
43773,-0.4119,-0.0562,0.9736,-57.315,-46.672,-6.123
43793,-0.2756,-0.0572,0.9142,-54.555,-36.459,-9.954
43814,-0.2449,-0.0517,1.0236,-53.574,-31.459,-10.983
43831,-0.2801,-0.1332,0.9362,-41.489,-18.512,0.872
43850,-0.1611,-0.0155,1.0667,-26.447,-5.74,9.547
43870,-0.0834,0.0641,1.2376,-14.484,11.148,15.235
43890,0.0135,0.0721,1.2677,3.992,5.348,15.738
43909,0.0248,0.1093,1.2652,16.332,31.677,12.087
43928,0.0821,0.1556,1.2944,22.884,29.227,22.571
43948,0.2429,0.1458,1.2964,32.405,35.332,21.868
43968,0.1963,0.1802,1.1252,50.576,40.333,23.545
43989,0.3052,0.1075,1.2033,55.268,32.098,14.254
44011,0.3274,0.0817,1.2465,55.815,36.346,18.957
44030,0.3437,0.1537,0.9658,54.271,32.331,17.911
44049,0.3526,0.1449,0.9264,54.901,37.064,3.37
44070,0.3908,0.1098,0.8746,55.248,23.496,2.704
44091,0.1843,0.0588,0.7927,53.739,19.542,-6.491
44110,0.2531,0.0049,0.8246,34.815,9.546,-7.231
44131,0.0118,-0.0039,0.8351,19.387,10.773,-8.244
44153,0.1236,-0.0318,1.0016,20.023,-9.342,-19.269
44175,-0.1351,-0.062,0.7785,-7.506,-21.37,-10.034
44198,0.0004,0.0172,0.653,-24.791,-22.445,-12.657
44216,-0.2048,-0.1767,0.8166,-33.803,-31.078,-20.201
44236,-0.1827,0.0174,0.7856,-44.659,-28.842,-23.282
44256,-0.2422,-0.2126,0.7408,-44.468,-37.619,-19.648
44276,-0.3525,-0.1287,0.7839,-65.048,-39.112,-10.574
44295,-0.3655,-0.199,0.9794,-56.6,-35.459,-12.42
44313,-0.3906,-0.1098,0.7655,-59.842,-35.285,-21.675
44333,-0.2939,-0.0543,0.7819,-59.916,-29.317,-20.155
44352,-0.324,-0.0762,1.0376,-53.591,-24.093,-9.391
44372,-0.2967,0.0016,0.9745,-45.095,-21.991,-0.602
44391,-0.172,-0.0368,1.2323,-33.658,-18.495,-4.626
44409,-0.1814,-0.0876,1.0974,-25.67,-5.412,6.742
44430,-0.0734,0.0809,1.1384,-10.086,-5.083,3.508
44450,0.0273,0.0816,1.2534,-0.119,10.013,15.234
44471,0.0714,0.0837,1.0255,28.66,20.124,18.915
44494,0.1615,0.1104,1.2337,36.941,36.317,28.08
44514,0.3245,0.1643,1.1588,44.922,34.148,19.337
44535,0.2888,0.1091,1.2825,49.038,47.063,17.586
44553,0.3116,0.1669,1.0937,60.611,41.824,24.616
44572,0.3384,0.1992,1.1464,61.004,30.767,18.92
44594,0.3702,0.225,1.0511,60.159,41.755,12.319
44613,0.2788,0.1708,1.0879,53.989,36.913,6.912
44631,0.3217,0.0841,0.9812,52.863,17.847,13.097
44651,0.2652,0.058,0.9876,51.689,22.509,-3.551
44671,0.1022,-0.0081,1.0936,33.25,17.76,-11.765
44689,0.2181,-0.0419,0.8545,20.699,-8.178,-9.191
44709,0.1252,-0.0079,0.89,9.435,-11.87,-13.693
44731,-0.0747,-0.1,1.0505,-5.728,-11.284,-9.63
44750,-0.1643,-0.0908,0.8455,-21.277,-24.417,-17.172
44768,-0.1618,-0.1758,0.5569,-33.401,-22.247,-14.787
44789,-0.3112,-0.0741,0.7368,-37.161,-30.515,-32.8
44810,-0.2249,-0.1657,0.6972,-44.225,-34.738,-21.181
44829,-0.3506,-0.0942,0.9314,-44.757,-34.5,-10.743
44846,-0.2638,-0.1771,0.8555,-56.835,-44.179,-21.566
44865,-0.3909,-0.1662,1.0058,-59.358,-39.622,-14.686
44885,-0.3429,-0.0413,1.0019,-53.314,-24.357,-5.404
44907,-0.2406,-0.1099,1.0504,-56.639,-29.485,-7.507
44925,-0.2787,-0.1296,0.9079,-41.794,-15.791,2.948
44945,-0.1903,-0.0703,1.1243,-29.768,-14.064,0.52
44966,-0.0767,0.0601,1.2521,-17.386,-7.623,7.886
44983,-0.0947,0.0835,0.9998,-3.129,-1.049,14.775
45004,-0.0473,0.0397,1.1413,-0.279,15.888,9.504
45022,0.0133,0.0705,1.2252,12.314,26.974,13.266
45043,0.1928,0.1588,1.2091,26.967,30.344,23.767
45063,0.2482,0.2063,1.3417,33.646,34.786,16.027
45085,0.3401,0.1457,1.2578,51.889,31.947,20.27
45106,0.3124,0.1765,1.2024,59.273,39.491,23.065
45122,0.2721,0.1866,1.2198,61.717,40.255,16.865
45141,0.2323,0.2375,1.1804,60.73,33.111,14.952
45161,0.4825,0.052,1.0672,63.163,35.861,17.698
45181,0.3374,0.0506,0.9834,56.199,24.688,17.309
45202,0.2714,0.0271,1.0705,42.341,18.776,1.821
45223,0.2172,0.0593,0.8514,20.089,16.025,-5.71
45244,0.0589,-0.0303,0.8769,20.713,10.866,-3.952
45263,0.0185,-0.0334,0.7364,10.177,1.854,-15.713
45281,0.0744,-0.0706,0.901,-1.949,-14.315,-8.28
45300,-0.0541,-0.1023,0.9334,-15.817,-18.608,-20.098
45321,-0.2025,-0.1199,0.7071,-30.86,-25.604,-21.327
45339,-0.2848,-0.0879,0.7861,-42.538,-30.746,-25.069
45360,-0.3063,-0.197,0.7648,-53.259,-37.452,-23.993
45381,-0.3377,-0.1567,0.9421,-53.01,-33.694,-12.546
45401,-0.2421,-0.203,1.0057,-53.619,-43.149,-14.532
45417,-0.3594,-0.12,0.8447,-66.256,-44.258,-14.143
45435,-0.402,-0.1238,0.6198,-59.021,-33.574,-0.43
45458,-0.3154,-0.0316,1.0947,-49.619,-30.725,-5.382
45477,-0.2584,-0.0571,1.0268,-47.51,-12.998,-1.855
45494,-0.2885,-0.0514,1.0647,-34.897,-18.142,-3.491
45516,-0.1313,-0.0044,1.2014,-20.564,-1.082,2.862
45536,-0.0163,0.1275,1.1041,-11.19,5.14,6.263
45558,0.0166,-0.003,1.1082,-0.82,5.5,11.299
45578,0.048,0.0713,1.1545,21.643,23.631,15.047
45599,0.1387,0.1273,1.2483,26.971,24.819,17.798
45619,0.1472,0.1089,1.2857,38.115,45.672,23.469
45640,0.279,0.1735,1.3487,51.555,33.703,19.536
45664,0.345,0.1454,1.1989,54.971,34.975,26.9
45685,0.3032,0.1514,1.1109,58.539,27.973,18.536
45703,0.4453,0.13,1.1799,57.851,32.692,8.95
45723,0.3715,0.0969,0.9519,55.995,35.747,10.921
45745,0.2047,0.0072,1.1417,51.442,20.211,4.71
45767,0.15,0.0459,0.9717,31.044,19.61,5.987
45786,0.1293,-0.0829,0.8875,30.118,10.246,-1.126
45808,0.1776,-0.0654,0.7723,8.132,-5.788,-9.486
45829,0.0617,-0.0409,0.8999,0.906,-10.9,-4.904
45853,0.004,-0.0397,0.784,-11.545,-25.037,-14.281
45872,-0.1477,-0.0034,0.7924,-27.048,-22.967,-15.892
45891,-0.2229,-0.1585,0.6335,-32.901,-42.067,-12.344
45911,-0.3318,-0.1905,0.7659,-44.445,-33.644,-15.6
45930,-0.2934,-0.1238,0.7698,-64.069,-43.351,-17.889
45949,-0.3478,-0.0523,0.8938,-51.953,-39.759,-17.571
45965,-0.3606,-0.0604,0.8518,-58.552,-37.091,-25.154
45984,-0.266,-0.1727,0.6504,-62.315,-35.969,-21.134
46005,-0.3325,-0.1037,0.9187,-58.273,-21.396,-8.377
46024,-0.2251,-0.0274,0.8575,-60.426,-27.772,-6.459
46047,-0.3115,0.0125,0.95,-38.703,-23.709,1.591
46067,-0.0331,0.0298,1.1965,-25.451,2.591,11.017
46089,-0.1053,0.0147,0.9674,-18.248,3.483,6.59
46109,0.027,0.0979,1.1952,-5.957,11.306,6.129
46130,0.1175,0.1447,1.1367,13.423,30.501,10.479
46151,0.1277,0.0755,1.1286,32.132,20.406,14.066
46173,0.2664,0.2063,1.1004,44.105,32.896,14.249
46193,0.3233,0.198,1.2195,52.103,31.881,19.975
46214,0.2857,0.1123,1.2091,65.196,38.89,26.171
46234,0.3092,0.1887,0.9641,63.642,32.229,19.363
46254,0.3519,0.1689,1.2154,65.722,37.766,16.715
46274,0.3314,0.1501,0.9404,58.239,33.411,10.673
46298,0.3693,0.1544,1.0444,49.64,26.125,-1.675
46317,0.2894,0.0457,0.8447,49.256,7.977,11.464
46338,0.187,0.0279,0.8717,27.752,14.415,-6.041
46360,0.1426,-0.1578,0.7474,21.376,-0.388,-5.236
46382,-0.0751,-0.0057,0.7878,1.63,4.031,-24.409
46402,-0.0825,-0.0396,0.7975,-7.168,-19.982,-16.693
46418,-0.0988,-0.0428,0.6909,-18.06,-27.01,-18.941
46439,-0.1321,-0.1782,0.8314,-31.398,-29.968,-20.921
46455,-0.228,-0.0941,0.8477,-40.886,-41.103,-27.002
46478,-0.2231,-0.0988,1.0894,-48.078,-32.776,-18.449
46498,-0.2869,-0.1806,0.9353,-53.165,-44.918,-11.793
46519,-0.3727,-0.0853,0.9934,-66.699,-43.602,-4.788
46538,-0.3547,-0.0993,0.7352,-59.826,-32.648,-3.942
46556,-0.3119,-0.1873,0.7544,-59.06,-31.515,-2.405
46576,-0.3217,-0.046,0.9652,-50.325,-25.574,4.074
46596,-0.1743,-0.0826,1.2186,-45.089,-25.948,9.146
46615,-0.2485,-0.0964,1.3282,-26.723,-6.364,-0.338
46635,-0.1069,0.0395,1.051,-21.373,-7.481,9.811
46660,0.0104,0.0585,1.1011,0.413,0.284,6.874
46681,0.0408,0.1624,1.2379,4.923,19.682,19.101
46702,0.1092,0.1265,1.1774,21.94,24.682,17.408
46724,0.2076,0.1757,1.1822,33.162,31.304,19.077
46746,0.3142,0.1732,1.2529,48.865,40.587,18.472
46766,0.2906,0.2008,1.4418,48.171,37.968,6.291
46783,0.2852,0.1012,1.2775,49.514,31.214,7.559
46802,0.4072,0.1443,1.3017,56.823,36.959,18.779
46823,0.3632,0.108,0.8886,61.642,36.594,7.483
46842,0.3711,0.1245,1.1391,50.926,31.169,12.134
46862,0.319,0.0757,0.8915,49.512,22.749,1.835
46881,0.3391,0.0017,1.1119,36.215,28.276,-9.578
46903,0.2139,-0.0216,1.0344,18.341,15.015,-13.508
46924,0.044,0.0426,0.9213,18.01,-8.753,-14.13
46945,0.0213,-0.1575,0.7567,2.87,-18.908,-19.073
46966,-0.1124,-0.0661,0.7622,-14.682,-14.065,-17.729
46986,-0.1812,-0.0617,0.7607,-26.958,-22.518,-17.841
47006,-0.2951,-0.1107,0.8778,-39.515,-26.178,-18.244
47024,-0.2884,-0.0493,0.8511,-52.153,-39.499,-18.693
47041,-0.2834,-0.103,0.9686,-46.723,-40.164,-14.557
47061,-0.3422,-0.1262,1.0144,-58.599,-48.846,-12.064
47082,-0.4049,-0.156,0.8049,-58.185,-37.668,-18.797
47104,-0.4166,-0.0913,0.9814,-60.863,-37.63,-19.556
47126,-0.2044,-0.0492,1.0287,-50.935,-32.268,-9.078
47148,-0.2442,-0.0498,1.0225,-38.93,-15.927,-0.371
47167,-0.2459,-0.0558,1.1675,-34.251,-13.535,0.864
47186,-0.1163,-0.0467,1.1604,-22.095,-0.254,10.775
47207,0.0495,0.0576,1.0898,-5.889,4.56,5.087
47231,0.0657,0.0106,1.164,9.483,18.291,23.559
47253,-0.02,0.0889,1.1601,25.687,17.584,22.161
47275,0.3293,0.0119,1.1272,35.329,26.321,17.772
47294,0.1615,0.1866,1.1857,45.133,38.126,16.165
47313,0.2892,0.2076,1.0499,52.532,47.276,18.589
47334,0.277,0.1512,1.2012,61.525,42.331,23.354
47352,0.3111,0.2299,1.2652,57.523,39.304,13.34
47372,0.3616,0.1892,1.0916,62.198,43.984,9.158
47392,0.2253,0.1231,1.1386,67.863,30.769,8.157
47414,0.2847,0.0626,1.0101,51.377,20.939,-2.841
47434,0.295,0.0191,0.8476,34.756,17.305,4.307
47450,0.1454,0.0379,1.1165,30.699,12.359,-1.54
47471,0.0432,-0.0327,0.6332,22.432,-5.212,-4.565
47490,0.0325,-0.0292,0.846,3.418,-6.787,-5.755
47510,-0.0564,-0.0552,0.7437,-11.661,-24.679,-19.781
47530,-0.1462,-0.1231,0.9635,-26.866,-25.368,-18.089
47549,-0.2436,-0.0756,0.8216,-32.616,-30.944,-20.006
47571,-0.2258,-0.1561,1.0609,-35.108,-35.864,-12.068
47588,-0.2639,-0.1485,0.8213,-52.99,-48.281,-21.57
47607,-0.3808,-0.1974,0.7634,-51.761,-39.424,-27.051
47628,-0.3937,-0.153,0.7011,-60.941,-35.007,-17.891
47648,-0.3413,-0.0156,1.0205,-61.618,-29.755,-7.954
47665,-0.3831,-0.15,0.8621,-54.818,-25.854,-6.49
47686,-0.2926,-0.055,0.9504,-59.351,-26.785,-5.183
47708,-0.175,-0.0655,1.1647,-34.239,-6.403,-1.684
47728,-0.1898,-0.1201,1.19,-29.336,-14.199,6.401
47745,-0.1875,0.0473,1.0568,-16.479,-6.468,11.155
47766,-0.0269,0.026,1.1071,-9.258,6.731,13.455
47783,0.0118,0.0955,0.9988,6.024,18.192,13.4
47804,0.0948,0.1567,0.987,22.198,25.689,17.638
47823,0.1951,0.1389,1.276,28.913,17.17,16.597
47841,0.264,0.157,1.2853,34.972,29.158,25.139
47860,0.2823,0.1051,1.223,43.378,41.534,19.089
47880,0.3173,0.1848,1.1854,52.8,35.294,13.859
47899,0.4462,0.1338,1.0687,59.941,39.156,27.802
47920,0.4098,0.0289,1.2485,59.143,39.536,9.741
47939,0.3806,0.1509,0.8842,55.649,36.465,5.44
47961,0.3135,0.1375,0.967,56.005,32.132,-0.695
47981,0.2111,0.1245,0.9848,42.501,27.031,-2.572
48000,0.2621,0.1277,0.9273,32.279,16.061,0.314
48019,0.1478,0.0257,0.8891,28.802,-1.61,-15.445
48036,0.0479,-0.0156,0.8076,15.915,-0.218,-10.136
48057,-0.0179,-0.0195,0.8841,-7.105,-7.035,-17.487
48076,-0.1285,-0.1445,0.6899,-20.404,-17.996,-21.216
48093,-0.091,-0.2033,0.7878,-30.195,-20.031,-27.5
48112,-0.1744,-0.16,0.8436,-35.906,-31.076,-20.046
48130,-0.252,-0.0822,0.7741,-38.864,-37.013,-28.518
48153,-0.3144,-0.183,0.828,-46.292,-43.667,-20.316
48170,-0.3707,-0.123,0.8717,-53.969,-29.817,-15.614
48188,-0.4556,-0.1079,0.7039,-50.276,-44.199,-26.237
48210,-0.4152,-0.1048,0.7563,-58.066,-35.579,-7.739
48232,-0.356,-0.1542,0.9843,-49.124,-31.728,-16.67
48251,-0.3255,-0.0456,0.9529,-50.995,-30.275,6.464
48270,-0.2153,-0.0533,1.0012,-47.176,-11.734,0.701
48291,-0.1207,0.0883,1.1565,-29.185,-4.618,2.0
48307,-0.1091,0.087,1.0303,-18.232,1.307,10.651
48324,0.0336,0.0383,0.9146,6.603,4.592,8.294
48344,0.003,0.1755,1.3458,7.219,19.151,3.774
48422,0.2883,0.1668,1.3026,45.49,37.267,25.156
48441,0.3259,0.0648,1.2793,61.121,42.349,16.299
48461,0.4018,0.1358,1.0164,55.719,46.583,16.017
48483,0.3527,0.2037,1.0791,60.273,24.275,11.26
48506,0.3314,0.0543,0.9107,60.061,36.063,3.429
48525,0.2067,0.065,0.9888,44.967,36.829,-2.125
48545,0.193,-0.0312,0.9153,48.385,25.92,2.602
48568,0.2188,-0.0619,0.7941,33.743,11.324,-3.586
48586,-0.0057,-0.0739,0.9191,18.578,5.477,-10.085
48607,0.0834,-0.1271,0.811,11.547,-14.28,-8.575
48626,-0.0337,-0.1239,0.9882,-11.967,-16.856,-16.851
48646,-0.1719,-0.0301,0.8117,-19.095,-26.353,-13.013
48666,-0.2452,-0.1369,0.5455,-33.506,-34.179,-12.396
48684,-0.1621,-0.1062,0.6252,-47.236,-31.138,-14.559
48703,-0.2311,-0.0953,1.0311,-54.76,-39.92,-17.231
48723,-0.3398,-0.2026,0.8104,-47.069,-49.271,-22.651
48745,-0.3427,-0.1771,0.9066,-54.608,-36.628,-12.505
48764,-0.3779,-0.0804,0.9208,-54.802,-36.01,-13.868
48784,-0.3177,-0.1268,1.1046,-58.745,-27.523,-3.934
48805,-0.3181,-0.0301,0.8196,-45.222,-26.217,5.112
48824,-0.2383,0.0491,1.1855,-42.025,-25.43,0.871
48845,-0.0762,-0.0722,1.2226,-20.084,-12.676,0.381
48866,-0.0944,0.018,1.1356,-9.295,-2.932,13.809
48890,-0.048,0.0636,1.211,5.351,7.162,14.479
48910,0.0145,0.0747,1.152,18.279,17.71,24.917
48929,0.1597,0.0919,1.0301,25.856,31.008,19.273
48950,0.1851,0.1147,1.2566,40.681,26.56,19.585
48971,0.2926,0.1477,1.212,55.756,42.097,20.231
48990,0.2376,0.1578,1.1948,56.94,33.328,20.167
49010,0.3775,0.191,1.1877,54.588,37.899,6.61
49031,0.2968,0.1277,1.0414,66.235,37.579,9.344
49049,0.3423,0.1667,1.2143,54.883,32.81,15.659
49069,0.2957,0.0557,1.0217,53.449,31.931,2.738
49089,0.3553,-0.0047,1.0299,43.814,21.325,1.421
49110,0.2178,0.0058,0.9025,22.829,12.588,-4.315
49129,0.2419,0.012,0.9964,25.67,-6.855,-10.741
49147,0.1052,0.0019,0.8701,24.1,-1.096,-11.725
49164,0.0818,0.0051,0.8265,3.409,-1.27,-19.029
49182,-0.0708,-0.079,0.9363,4.464,-20.697,-23.941
49200,-0.1116,-0.0777,0.6315,-22.854,-21.756,-17.439
49220,-0.1376,-0.0655,0.7721,-32.929,-35.531,-11.661
49238,-0.2075,-0.1838,0.7443,-43.844,-30.843,-16.251
49257,-0.272,-0.1603,0.8574,-50.876,-36.17,-15.534
49276,-0.347,-0.0094,0.8743,-54.829,-41.809,-12.598
49295,-0.3554,-0.0964,0.8715,-52.021,-41.512,-14.516
49317,-0.2902,-0.0957,0.8432,-63.692,-33.141,-11.848
